# scan = 337
# date = 11/11/2003
# time = 8:46:50 AM
# experiment = TbPtIn single crystal;  100 plane
# experiment_number = 41
# command = scan h 0.3 2.08 .005 k 0.3 2.08 .005 l 0.3 2.08 .005 preset mcu 6
# builtin_command = scan h 0.3 2.08 .005 k 0.3 2.08 .005 l 0.3 2.08 .005 preset mcu 6
# users = O.Garlea, C.Stassis, J.L.Zarestky
# local_contact = J.L.Zarestky
# scan_title = hhh scan, base temp, H = 3 T
# monochromator = PG002
# analyzer = Pg002
# sense = +-+
# collimation = 48-40-40-102
# samplename = TbPtIn
# sampletype = crystal
# samplemosaic = 30.000000
# latticeconstants = 7.554053,7.554053,3.846679,90.000000,90.000000,120.000000
# ubmatrix = -0.005362,-0.005623,0.259740,-0.129577,-0.134798,-0.010795,0.080912,-0.071857,-0.000073
# mode = 0
# plane_normal = 0.001702,0.034158,0.999415
# ubconf = C:\User\exp41\UBConf\UB10Nov2003_64050PM.ini
# preset_type = normal 
# preset_channel = mcu
# preset_value = 6.000000
# def_x = h
# def_y = detector
# col_headers = 
#   Pt.          h          k          l       time   detector    monitor        mcu         m2         s1         s2        sgl        sgu        stl        stu         a1         a2          q         ei         ef          e       temp    coldtip    tsample
      1     0.3000     0.3001     0.3000      5.539     28.000  22200.000      6.000    41.2537    40.3248   -15.1219    -0.0975     1.9545     1.0050    -3.9990    20.6267    41.2566     0.6995    14.6405    14.6385     0.0020   295.0000     4.2187     4.185
      2     0.3049     0.3050     0.3050      5.510     20.000  22200.000      6.000    41.2537    40.2008   -15.3719    -0.0975     1.9545     1.0050    -3.9990    20.6267    41.2566     0.7110    14.6405    14.6385     0.0020   295.0000     4.2202     4.183
      3     0.3100     0.3100     0.3100      5.513     27.000  22200.000      6.000    41.2537    40.0738   -15.6269    -0.0975     1.9545     1.0050    -3.9990    20.6267    41.2566     0.7227    14.6405    14.6385     0.0020   295.0000     4.2187     4.191
      4     0.3149     0.3150     0.3150      5.506     18.000  22200.000      6.000    41.2537    39.9478   -15.8798    -0.0975     1.9545     1.0050    -3.9990    20.6267    41.2566     0.7343    14.6405    14.6385     0.0020   295.0000     4.2187     4.191
      5     0.3200     0.3201     0.3200      5.610     22.000  22200.000      6.000    41.2537    39.8209   -16.1377    -0.0975     1.9545     1.0050    -3.9990    20.6267    41.2566     0.7462    14.6405    14.6385     0.0020   295.0000     4.2217     4.165
      6     0.3250     0.3250     0.3250      5.644     19.000  22200.000      6.000    41.2537    39.6939   -16.3887    -0.0975     1.9545     1.0050    -3.9990    20.6267    41.2566     0.7577    14.6405    14.6385     0.0020   295.0000     4.2196     4.186
      7     0.3300     0.3300     0.3300      5.574     16.000  22200.000      6.000    41.2537    39.5669   -16.6426    -0.0975     1.9545     1.0050    -3.9990    20.6267    41.2566     0.7694    14.6405    14.6385     0.0020   295.0000     4.2190     4.183
      8     0.3350     0.3350     0.3350      5.559     18.000  22200.000      6.000    41.2537    39.4400   -16.8965    -0.0975     1.9545     1.0050    -3.9990    20.6267    41.2566     0.7810    14.6405    14.6385     0.0020   295.0000     4.2190     4.183
      9     0.3399     0.3400     0.3400      5.598     22.000  22200.000      6.000    41.2537    39.3130   -17.1495    -0.0975     1.9545     1.0050    -3.9990    20.6267    41.2566     0.7926    14.6405    14.6385     0.0020   295.0000     4.2174     4.185
     10     0.3450     0.3450     0.3450      5.532     25.000  22200.000      6.000    41.2537    39.1870   -17.4044    -0.0975     1.9545     1.0050    -3.9990    20.6267    41.2566     0.8043    14.6405    14.6385     0.0020   295.0000     4.2184     4.183
     11     0.3500     0.3500     0.3500      5.599      8.000  22200.000      6.000    41.2537    39.0600   -17.6593    -0.0975     1.9545     1.0050    -3.9990    20.6267    41.2566     0.8160    14.6405    14.6385     0.0020   295.0000     4.2196     4.184
     12     0.3549     0.3550     0.3550      5.560     16.000  22200.000      6.000    41.2537    38.9321   -17.9113    -0.0975     1.9545     1.0050    -3.9990    20.6267    41.2566     0.8275    14.6405    14.6385     0.0020   295.0000     4.2133     4.187
     13     0.3600     0.3601     0.3600      5.526     22.000  22200.000      6.000    41.2537    38.8051   -18.1692    -0.0975     1.9545     1.0050    -3.9990    20.6267    41.2566     0.8394    14.6405    14.6385     0.0020   295.0000     4.2133     4.187
     14     0.3650     0.3650     0.3650      5.573     25.000  22200.000      6.000    41.2537    38.6791   -18.4221    -0.0975     1.9545     1.0050    -3.9990    20.6267    41.2566     0.8509    14.6405    14.6385     0.0020   295.0000     4.2200     4.183
     15     0.3700     0.3701     0.3700      5.578     21.000  22200.000      6.000    41.2537    38.5502   -18.6780    -0.0975     1.9545     1.0050    -3.9990    20.6267    41.2566     0.8627    14.6405    14.6385     0.0020   295.0000     4.2216     4.186
     16     0.3749     0.3750     0.3750      5.553     17.000  22200.000      6.000    41.2537    38.4242   -18.9300    -0.0975     1.9545     1.0050    -3.9990    20.6267    41.2566     0.8742    14.6405    14.6385     0.0020   295.0000     4.2188     4.184
     17     0.3800     0.3801     0.3800      5.557     25.000  22200.000      6.000    41.2537    38.2982   -19.1869    -0.0975     1.9545     1.0050    -3.9990    20.6267    41.2566     0.8859    14.6405    14.6385     0.0020   295.0000     4.2188     4.184
     18     0.3849     0.3850     0.3850      5.559     17.000  22200.000      6.000    41.2537    38.1693   -19.4398    -0.0975     1.9545     1.0050    -3.9990    20.6267    41.2566     0.8975    14.6405    14.6385     0.0020   295.0000     4.2176     4.191
     19     0.3900     0.3901     0.3900      5.620     17.000  22200.000      6.000    41.2537    38.0433   -19.6967    -0.0975     1.9545     1.0050    -3.9990    20.6267    41.2566     0.9093    14.6405    14.6385     0.0020   295.0000     4.2171     4.183
     20     0.3949     0.3950     0.3950      5.512     25.000  22200.000      6.000    41.2537    37.9154   -19.9507    -0.0975     1.9545     1.0050    -3.9990    20.6267    41.2566     0.9209    14.6405    14.6385     0.0020   295.0000     4.2197     4.185
     21     0.4000     0.4001     0.4000      5.513     20.000  22200.000      6.000    41.2537    37.7884   -20.2076    -0.0975     1.9545     1.0050    -3.9990    20.6267    41.2566     0.9326    14.6405    14.6385     0.0020   295.0000     4.2197     4.185
     22     0.4050     0.4050     0.4050      5.535     18.000  22200.000      6.000    41.2537    37.6604   -20.4615    -0.0975     1.9545     1.0050    -3.9990    20.6267    41.2566     0.9442    14.6405    14.6385     0.0020   295.0000     4.2237     4.180
     23     0.4100     0.4101     0.4100      5.580     14.000  22200.000      6.000    41.2537    37.5305   -20.7184    -0.0975     1.9545     1.0050    -3.9990    20.6267    41.2566     0.9559    14.6405    14.6385     0.0020   295.0000     4.2177     4.184
     24     0.4149     0.4150     0.4150      5.579     12.000  22200.000      6.000    41.2537    37.4045   -20.9713    -0.0975     1.9545     1.0050    -3.9990    20.6267    41.2566     0.9675    14.6405    14.6385     0.0020   295.0000     4.2174     4.184
     25     0.4200     0.4201     0.4200      5.628     13.000  22200.000      6.000    41.2537    37.2766   -21.2292    -0.0975     1.9545     1.0050    -3.9990    20.6267    41.2566     0.9792    14.6405    14.6385     0.0020   295.0000     4.2207     4.182
     26     0.4250     0.4251     0.4250      5.556     13.000  22200.000      6.000    41.2537    37.1496   -21.4851    -0.0975     1.9545     1.0050    -3.9990    20.6267    41.2566     0.9909    14.6405    14.6385     0.0020   295.0000     4.2207     4.182
     27     0.4300     0.4300     0.4300      5.566     17.000  22200.000      6.000    41.2537    37.0207   -21.7400    -0.0975     1.9545     1.0050    -3.9990    20.6267    41.2566     1.0025    14.6405    14.6385     0.0020   295.0000     4.2176     4.189
     28     0.4349     0.4350     0.4350      5.566     17.000  22200.000      6.000    41.2537    36.8937   -21.9940    -0.0975     1.9545     1.0050    -3.9990    20.6267    41.2566     1.0141    14.6405    14.6385     0.0020   295.0000     4.2188     4.185
     29     0.4400     0.4401     0.4400      5.570     22.000  22200.000      6.000    41.2537    36.7657   -22.2528    -0.0975     1.9545     1.0050    -3.9990    20.6267    41.2566     1.0259    14.6405    14.6385     0.0020   295.0000     4.2194     4.184
     30     0.4450     0.4450     0.4450      5.427     13.000  22200.000      6.000    41.2537    36.6388   -22.5078    -0.0975     1.9545     1.0050    -3.9990    20.6267    41.2566     1.0375    14.6405    14.6385     0.0020   295.0000     4.2194     4.184
     31     0.4500     0.4500     0.4500      5.590     17.000  22200.000      6.000    41.2537    36.5089   -22.7646    -0.0975     1.9545     1.0050    -3.9990    20.6267    41.2566     1.0491    14.6405    14.6385     0.0020   295.0000     4.2221     4.184
     32     0.4550     0.4550     0.4550      5.503     12.000  22200.000      6.000    41.2537    36.3819   -23.0206    -0.0975     1.9545     1.0050    -3.9990    20.6267    41.2566     1.0608    14.6405    14.6385     0.0020   295.0000     4.2207     4.181
     33     0.4599     0.4600     0.4600      5.470     15.000  22200.000      6.000    41.2537    36.2539   -23.2765    -0.0975     1.9545     1.0050    -3.9990    20.6267    41.2566     1.0724    14.6405    14.6385     0.0020   295.0000     4.2195     4.184
     34     0.4650     0.4651     0.4650      5.557     22.000  22200.000      6.000    41.2537    36.1260   -23.5363    -0.0975     1.9545     1.0050    -3.9990    20.6267    41.2566     1.0842    14.6405    14.6385     0.0020   295.0000     4.2195     4.184
     35     0.4700     0.4701     0.4700      5.610     10.000  22200.000      6.000    41.2537    35.9980   -23.7932    -0.0975     1.9545     1.0050    -3.9990    20.6267    41.2566     1.0959    14.6405    14.6385     0.0020   295.0000     4.2201     4.175
     36     0.4749     0.4750     0.4750      5.531      9.000  22200.000      6.000    41.2537    35.8681   -24.0461    -0.0975     1.9545     1.0050    -3.9990    20.6267    41.2566     1.1074    14.6405    14.6385     0.0020   295.0000     4.2219     4.182
     37     0.4799     0.4800     0.4800      5.573     22.000  22200.000      6.000    41.2537    35.7402   -24.3040    -0.0975     1.9545     1.0050    -3.9990    20.6267    41.2566     1.1190    14.6405    14.6385     0.0020   295.0000     4.2185     4.182
     38     0.4850     0.4851     0.4850      5.565    172.000  22200.000      6.000    41.2537    35.6112   -24.5619    -0.0975     1.9545     1.0050    -3.9990    20.6267    41.2566     1.1307    14.6405    14.6385     0.0020   295.0000     4.2164     4.198
     39     0.4900     0.4900     0.4900      5.544    704.000  22200.000      6.000    41.2537    35.4833   -24.8188    -0.0975     1.9545     1.0050    -3.9990    20.6267    41.2566     1.1424    14.6405    14.6385     0.0020   295.0000     4.2164     4.198
     40     0.4949     0.4950     0.4950      5.585   2158.000  22200.000      6.000    41.2537    35.3543   -25.0747    -0.0975     1.9545     1.0050    -3.9990    20.6267    41.2566     1.1540    14.6405    14.6385     0.0020   295.0000     4.2272     4.170
     41     0.5000     0.5001     0.5000      5.552   4917.000  22200.000      6.000    41.2537    35.2254   -25.3345    -0.0975     1.9545     1.0050    -3.9990    20.6267    41.2566     1.1657    14.6405    14.6385     0.0020   295.0000     4.2211     4.185
     42     0.5050     0.5051     0.5050      5.498   2157.000  22200.000      6.000    41.2537    35.0994   -25.5914    -0.0975     1.9545     1.0050    -3.9990    20.6267    41.2566     1.1774    14.6405    14.6385     0.0020   295.0000     4.2211     4.183
     43     0.5099     0.5100     0.5100      5.560    609.000  22200.000      6.000    41.2537    34.9695   -25.8483    -0.0975     1.9545     1.0050    -3.9990    20.6267    41.2566     1.1890    14.6405    14.6385     0.0020   295.0000     4.2211     4.183
     44     0.5149     0.5150     0.5150      5.614     99.000  22200.000      6.000    41.2537    34.8406   -26.1062    -0.0975     1.9545     1.0050    -3.9990    20.6267    41.2566     1.2006    14.6405    14.6385     0.0020   295.0000     4.2229     4.194
     45     0.5199     0.5200     0.5200      5.602     28.000  22200.000      6.000    41.2537    34.7116   -26.3641    -0.0975     1.9545     1.0050    -3.9990    20.6267    41.2566     1.2123    14.6405    14.6385     0.0020   295.0000     4.2170     4.183
     46     0.5249     0.5250     0.5250      5.559     16.000  22200.000      6.000    41.2537    34.5807   -26.6229    -0.0975     1.9545     1.0050    -3.9990    20.6267    41.2566     1.2240    14.6405    14.6385     0.0020   295.0000     4.2155     4.184
     47     0.5299     0.5300     0.5300      5.473     16.000  22200.000      6.000    41.2537    34.4508   -26.8808    -0.0975     1.9545     1.0050    -3.9990    20.6267    41.2566     1.2356    14.6405    14.6385     0.0020   295.0000     4.2180     4.184
     48     0.5349     0.5350     0.5350      5.581     12.000  22200.000      6.000    41.2537    34.3248   -27.1387    -0.0975     1.9545     1.0050    -3.9990    20.6267    41.2566     1.2472    14.6405    14.6385     0.0020   295.0000     4.2180     4.184
     49     0.5399     0.5400     0.5400      5.534     24.000  22200.000      6.000    41.2537    34.1939   -27.3975    -0.0975     1.9545     1.0050    -3.9990    20.6267    41.2566     1.2589    14.6405    14.6385     0.0020   295.0000     4.2206     4.185
     50     0.5450     0.5451     0.5450      5.529     10.000  22200.000      6.000    41.2537    34.0650   -27.6574    -0.0975     1.9545     1.0050    -3.9990    20.6267    41.2566     1.2706    14.6405    14.6385     0.0020   295.0000     4.2215     4.182
     51     0.5499     0.5500     0.5500      5.545     24.000  22200.000      6.000    41.2537    33.9360   -27.9152    -0.0975     1.9545     1.0050    -3.9990    20.6267    41.2566     1.2822    14.6405    14.6385     0.0020   295.0000     4.2194     4.185
     52     0.5550     0.5551     0.5550      5.573     13.000  22200.000      6.000    41.2537    33.8071   -28.1751    -0.0975     1.9545     1.0050    -3.9990    20.6267    41.2566     1.2939    14.6405    14.6385     0.0020   295.0000     4.2194     4.185
     53     0.5599     0.5600     0.5600      5.599     14.000  22200.000      6.000    41.2537    33.6772   -28.4320    -0.0975     1.9545     1.0050    -3.9990    20.6267    41.2566     1.3055    14.6405    14.6385     0.0020   295.0000     4.2218     4.186
     54     0.5650     0.5651     0.5650      5.582     12.000  22200.000      6.000    41.2537    33.5472   -28.6938    -0.0975     1.9545     1.0050    -3.9990    20.6267    41.2566     1.3173    14.6405    14.6385     0.0020   295.0000     4.2211     4.183
     55     0.5699     0.5700     0.5700      5.542     19.000  22200.000      6.000    41.2537    33.4183   -28.9517    -0.0975     1.9545     1.0050    -3.9990    20.6267    41.2566     1.3288    14.6405    14.6385     0.0020   295.0000     4.2205     4.186
     56     0.5750     0.5751     0.5750      5.566     15.000  22200.000      6.000    41.2537    33.2894   -29.2125    -0.0975     1.9545     1.0050    -3.9990    20.6267    41.2566     1.3406    14.6405    14.6385     0.0020   295.0000     4.2207     4.200
     57     0.5799     0.5800     0.5800      5.590     12.000  22200.000      6.000    41.2537    33.1575   -29.4713    -0.0975     1.9545     1.0050    -3.9990    20.6267    41.2566     1.3522    14.6405    14.6385     0.0020   295.0000     4.2207     4.200
     58     0.5850     0.5851     0.5850      5.518     10.000  22200.000      6.000    41.2537    33.0285   -29.7332    -0.0975     1.9545     1.0050    -3.9990    20.6267    41.2566     1.3639    14.6405    14.6385     0.0020   295.0000     4.2245     4.160
     59     0.5899     0.5900     0.5900      5.610     17.000  22200.000      6.000    41.2537    32.8996   -29.9900    -0.0975     1.9545     1.0050    -3.9990    20.6267    41.2566     1.3754    14.6405    14.6385     0.0020   295.0000     4.2194     4.183
     60     0.5949     0.5951     0.5950      5.525     14.000  22200.000      6.000    41.2537    32.7687   -30.2519    -0.0975     1.9545     1.0050    -3.9990    20.6267    41.2566     1.3872    14.6405    14.6385     0.0020   295.0000     4.2191     4.184
     61     0.5999     0.6001     0.6000      5.614     11.000  22200.000      6.000    41.2537    32.6378   -30.5127    -0.0975     1.9545     1.0050    -3.9990    20.6267    41.2566     1.3988    14.6405    14.6385     0.0020   295.0000     4.2191     4.184
     62     0.6050     0.6051     0.6050      5.556     13.000  22200.000      6.000    41.2537    32.5069   -30.7745    -0.0975     1.9545     1.0050    -3.9990    20.6267    41.2566     1.4106    14.6405    14.6385     0.0020   295.0000     4.2177     4.184
     63     0.6100     0.6101     0.6100      5.598     16.000  22200.000      6.000    41.2537    32.3780   -31.0343    -0.0975     1.9545     1.0050    -3.9990    20.6267    41.2566     1.4222    14.6405    14.6385     0.0020   295.0000     4.2186     4.184
     64     0.6150     0.6151     0.6150      5.551     10.000  22200.000      6.000    41.2537    32.2480   -31.2971    -0.0975     1.9545     1.0050    -3.9990    20.6267    41.2566     1.4339    14.6405    14.6385     0.0020   295.0000     4.2187     4.183
     65     0.6199     0.6200     0.6200      5.543     18.000  22200.000      6.000    41.2537    32.1161   -31.5550    -0.0975     1.9545     1.0050    -3.9990    20.6267    41.2566     1.4454    14.6405    14.6385     0.0020   295.0000     4.2202     4.191
     66     0.6250     0.6251     0.6250      5.564     10.000  22200.000      6.000    41.2537    31.9872   -31.8168    -0.0975     1.9545     1.0050    -3.9990    20.6267    41.2566     1.4571    14.6405    14.6385     0.0020   295.0000     4.2202     4.191
     67     0.6299     0.6301     0.6300      5.614     13.000  22200.000      6.000    41.2537    31.8543   -32.0786    -0.0975     1.9545     1.0050    -3.9990    20.6267    41.2566     1.4688    14.6405    14.6385     0.0020   295.0000     4.2201     4.183
     68     0.6349     0.6350     0.6350      5.538     10.000  22200.000      6.000    41.2537    31.7264   -32.3385    -0.0975     1.9545     1.0050    -3.9990    20.6267    41.2566     1.4804    14.6405    14.6385     0.0020   295.0000     4.2216     4.182
     69     0.6399     0.6400     0.6400      5.634     23.000  22200.000      6.000    41.2537    31.5925   -32.5993    -0.0975     1.9545     1.0050    -3.9990    20.6267    41.2566     1.4920    14.6405    14.6385     0.0020   295.0000     4.2203     4.192
     70     0.6449     0.6451     0.6450      5.584      8.000  22200.000      6.000    41.2537    31.4636   -32.8631    -0.0975     1.9545     1.0050    -3.9990    20.6267    41.2566     1.5037    14.6405    14.6385     0.0020   295.0000     4.2203     4.192
     71     0.6499     0.6501     0.6500      5.562     12.000  22200.000      6.000    41.2537    31.3317   -33.1259    -0.0975     1.9545     1.0050    -3.9990    20.6267    41.2566     1.5154    14.6405    14.6385     0.0020   295.0000     4.2266     4.188
     72     0.6550     0.6551     0.6550      5.499     11.000  22200.000      6.000    41.2537    31.2028   -33.3877    -0.0975     1.9545     1.0050    -3.9990    20.6267    41.2566     1.5271    14.6405    14.6385     0.0020   295.0000     4.2220     4.181
     73     0.6599     0.6601     0.6600      5.522     14.000  22200.000      6.000    41.2537    31.0689   -33.6505    -0.0975     1.9545     1.0050    -3.9990    20.6267    41.2566     1.5387    14.6405    14.6385     0.0020   295.0000     4.2206     4.182
     74     0.6649     0.6650     0.6650      5.502     15.000  22200.000      6.000    41.2537    30.9390   -33.9113    -0.0975     1.9545     1.0050    -3.9990    20.6267    41.2566     1.5503    14.6405    14.6385     0.0020   295.0000     4.2230     4.183
     75     0.6700     0.6701     0.6700      5.529     18.000  22200.000      6.000    41.2537    30.8081   -34.1761    -0.0975     1.9545     1.0050    -3.9990    20.6267    41.2566     1.5621    14.6405    14.6385     0.0020   295.0000     4.2230     4.183
     76     0.6749     0.6750     0.6750      5.527     15.000  22200.000      6.000    41.2537    30.6752   -34.4379    -0.0975     1.9545     1.0050    -3.9990    20.6267    41.2566     1.5737    14.6405    14.6385     0.0020   295.0000     4.2210     4.187
     77     0.6800     0.6801     0.6800      5.567     19.000  22200.000      6.000    41.2537    30.5453   -34.7026    -0.0975     1.9545     1.0050    -3.9990    20.6267    41.2566     1.5854    14.6405    14.6385     0.0020   295.0000     4.2192     4.185
     78     0.6849     0.6850     0.6850      5.569     24.000  22200.000      6.000    41.2537    30.4114   -34.9625    -0.0975     1.9545     1.0050    -3.9990    20.6267    41.2566     1.5969    14.6405    14.6385     0.0020   295.0000     4.2205     4.182
     79     0.6900     0.6901     0.6900      5.519     17.000  22200.000      6.000    41.2537    30.2825   -35.2292    -0.0975     1.9545     1.0050    -3.9990    20.6267    41.2566     1.6087    14.6405    14.6385     0.0020   295.0000     4.2205     4.182
     80     0.6949     0.6950     0.6950      5.571     19.000  22200.000      6.000    41.2537    30.1486   -35.4910    -0.0975     1.9545     1.0050    -3.9990    20.6267    41.2566     1.6203    14.6405    14.6385     0.0020   295.0000     4.2264     4.189
     81     0.7000     0.7001     0.7000      5.588     19.000  22200.000      6.000    41.2537    30.0177   -35.7587    -0.0975     1.9545     1.0050    -3.9990    20.6267    41.2566     1.6321    14.6405    14.6385     0.0020   295.0000     4.2188     4.183
     82     0.7049     0.7050     0.7050      5.584     23.000  22200.000      6.000    41.2537    29.8858   -36.0176    -0.0975     1.9545     1.0050    -3.9990    20.6267    41.2566     1.6435    14.6405    14.6385     0.0020   295.0000     4.2187     4.183
     83     0.7099     0.7101     0.7100      5.515     22.000  22200.000      6.000    41.2537    29.7520   -36.2853    -0.0975     1.9545     1.0050    -3.9990    20.6267    41.2566     1.6553    14.6405    14.6385     0.0020   295.0000     4.2126     4.190
     84     0.7149     0.7151     0.7150      5.586     26.000  22200.000      6.000    41.2537    29.6211   -36.5491    -0.0975     1.9545     1.0050    -3.9990    20.6267    41.2566     1.6669    14.6405    14.6385     0.0020   295.0000     4.2126     4.190
     85     0.7199     0.7201     0.7200      5.489     26.000  22200.000      6.000    41.2537    29.4882   -36.8139    -0.0975     1.9545     1.0050    -3.9990    20.6267    41.2566     1.6786    14.6405    14.6385     0.0020   295.0000     4.2194     4.186
     86     0.7249     0.7250     0.7250      5.561     29.000  22200.000      6.000    41.2537    29.3553   -37.0776    -0.0975     1.9545     1.0050    -3.9990    20.6267    41.2566     1.6902    14.6405    14.6385     0.0020   295.0000     4.2200     4.182
     87     0.7300     0.7301     0.7300      5.571     22.000  22200.000      6.000    41.2537    29.2254   -37.3444    -0.0975     1.9545     1.0050    -3.9990    20.6267    41.2566     1.7019    14.6405    14.6385     0.0020   295.0000     4.2177     4.184
     88     0.7349     0.7351     0.7350      5.501     26.000  22200.000      6.000    41.2537    29.0925   -37.6091    -0.0975     1.9545     1.0050    -3.9990    20.6267    41.2566     1.7136    14.6405    14.6385     0.0020   295.0000     4.2177     4.184
     89     0.7399     0.7401     0.7400      5.561     24.000  22200.000      6.000    41.2537    28.9587   -37.8739    -0.0975     1.9545     1.0050    -3.9990    20.6267    41.2566     1.7252    14.6405    14.6385     0.0020   295.0000     4.2191     4.186
     90     0.7450     0.7451     0.7450      5.507     25.000  22200.000      6.000    41.2537    28.8268   -38.1416    -0.0975     1.9545     1.0050    -3.9990    20.6267    41.2566     1.7369    14.6405    14.6385     0.0020   295.0000     4.2213     4.183
     91     0.7499     0.7500     0.7500      5.546     15.000  22200.000      6.000    41.2537    28.6929   -38.4054    -0.0975     1.9545     1.0050    -3.9990    20.6267    41.2566     1.7485    14.6405    14.6385     0.0020   295.0000     4.2212     4.184
     92     0.7551     0.7552     0.7551      5.574     26.000  22200.000      6.000    41.2537    28.5591   -38.6780    -0.0975     1.9545     1.0050    -3.9990    20.6267    41.2566     1.7604    14.6405    14.6385     0.0020   295.0000     4.2184     4.187
     93     0.7599     0.7600     0.7600      5.592     15.000  22200.000      6.000    41.2537    28.4262   -38.9369    -0.0975     1.9545     1.0050    -3.9990    20.6267    41.2566     1.7718    14.6405    14.6385     0.0020   295.0000     4.2184     4.187
     94     0.7649     0.7651     0.7650      5.589     42.000  22200.000      6.000    41.2537    28.2923   -39.2066    -0.0975     1.9545     1.0050    -3.9990    20.6267    41.2566     1.7835    14.6405    14.6385     0.0020   295.0000     4.2214     4.186
     95     0.7699     0.7701     0.7700      5.605     15.000  22200.000      6.000    41.2537    28.1604   -39.4713    -0.0975     1.9545     1.0050    -3.9990    20.6267    41.2566     1.7951    14.6405    14.6385     0.0020   295.0000     4.2200     4.184
     96     0.7750     0.7751     0.7750      5.558     16.000  22200.000      6.000    41.2537    28.0266   -39.7410    -0.0975     1.9545     1.0050    -3.9990    20.6267    41.2566     1.8069    14.6405    14.6385     0.0020   295.0000     4.2192     4.187
     97     0.7799     0.7800     0.7800      5.522     28.000  22200.000      6.000    41.2537    27.8927   -40.0038    -0.0975     1.9545     1.0050    -3.9990    20.6267    41.2566     1.8183    14.6405    14.6385     0.0020   295.0000     4.2192     4.187
     98     0.7850     0.7851     0.7850      5.563     30.000  22200.000      6.000    41.2537    27.7589   -40.2755    -0.0975     1.9545     1.0050    -3.9990    20.6267    41.2566     1.8302    14.6405    14.6385     0.0020   295.0000     4.2218     4.178
     99     0.7899     0.7901     0.7900      5.540     28.000  22200.000      6.000    41.2537    27.6260   -40.5422    -0.0975     1.9545     1.0050    -3.9990    20.6267    41.2566     1.8418    14.6405    14.6385     0.0020   295.0000     4.2202     4.184
    100     0.7949     0.7951     0.7950      5.627     21.000  22200.000      6.000    41.2537    27.4911   -40.8099    -0.0975     1.9545     1.0050    -3.9990    20.6267    41.2566     1.8534    14.6405    14.6385     0.0020   295.0000     4.2213     4.183
    101     0.7999     0.8000     0.8000      5.602     26.000  22200.000      6.000    41.2537    27.3563   -41.0767    -0.0975     1.9545     1.0050    -3.9990    20.6267    41.2566     1.8650    14.6405    14.6385     0.0020   295.0000     4.2169     4.185
    102     0.8049     0.8051     0.8050      5.560     27.000  22200.000      6.000    41.2537    27.2234   -41.3473    -0.0975     1.9545     1.0050    -3.9990    20.6267    41.2566     1.8768    14.6405    14.6385     0.0020   295.0000     4.2169     4.185
    103     0.8099     0.8101     0.8100      5.519     30.000  22200.000      6.000    41.2537    27.0896   -41.6150    -0.0975     1.9545     1.0050    -3.9990    20.6267    41.2566     1.8884    14.6405    14.6385     0.0020   295.0000     4.2186     4.185
    104     0.8149     0.8150     0.8150      5.527     17.000  22200.000      6.000    41.2537    26.9547   -41.8828    -0.0975     1.9545     1.0050    -3.9990    20.6267    41.2566     1.9000    14.6405    14.6385     0.0020   295.0000     4.2215     4.184
    105     0.8199     0.8201     0.8200      5.560     21.000  22200.000      6.000    41.2537    26.8209   -42.1534    -0.0975     1.9545     1.0050    -3.9990    20.6267    41.2566     1.9117    14.6405    14.6385     0.0020   295.0000     4.2169     4.183
    106     0.8249     0.8250     0.8250      5.565     25.000  22200.000      6.000    41.2537    26.6850   -42.4211    -0.0975     1.9545     1.0050    -3.9990    20.6267    41.2566     1.9233    14.6405    14.6385     0.0020   295.0000     4.2169     4.183
    107     0.8299     0.8301     0.8300      5.568     38.000  22200.000      6.000    41.2537    26.5492   -42.6938    -0.0975     1.9545     1.0050    -3.9990    20.6267    41.2566     1.9351    14.6405    14.6385     0.0020   295.0000     4.2226     4.181
    108     0.8348     0.8350     0.8350      5.597     25.000  22200.000      6.000    41.2537    26.4134   -42.9605    -0.0975     1.9545     1.0050    -3.9990    20.6267    41.2566     1.9466    14.6405    14.6385     0.0020   295.0000     4.2194     4.182
    109     0.8399     0.8401     0.8400      5.609     30.000  22200.000      6.000    41.2537    26.2815   -43.2322    -0.0975     1.9545     1.0050    -3.9990    20.6267    41.2566     1.9583    14.6405    14.6385     0.0020   295.0000     4.2217     4.183
    110     0.8449     0.8451     0.8450      5.568     24.000  22200.000      6.000    41.2537    26.1457   -43.5019    -0.0975     1.9545     1.0050    -3.9990    20.6267    41.2566     1.9700    14.6405    14.6385     0.0020   295.0000     4.2217     4.183
    111     0.8499     0.8501     0.8500      5.550     22.000  22200.000      6.000    41.2537    26.0098   -43.7735    -0.0975     1.9545     1.0050    -3.9990    20.6267    41.2566     1.9817    14.6405    14.6385     0.0020   295.0000     4.2251     4.188
    112     0.8549     0.8551     0.8550      5.618     29.000  22200.000      6.000    41.2537    25.8750   -44.0432    -0.0975     1.9545     1.0050    -3.9990    20.6267    41.2566     1.9933    14.6405    14.6385     0.0020   295.0000     4.2200     4.187
    113     0.8599     0.8601     0.8600      5.613     27.000  22200.000      6.000    41.2537    25.7392   -44.3158    -0.0975     1.9545     1.0050    -3.9990    20.6267    41.2566     2.0050    14.6405    14.6385     0.0020   295.0000     4.2197     4.185
    114     0.8649     0.8650     0.8650      5.472     28.000  22200.000      6.000    41.2537    25.6024   -44.5855    -0.0975     1.9545     1.0050    -3.9990    20.6267    41.2566     2.0166    14.6405    14.6385     0.0020   295.0000     4.2213     4.185
    115     0.8699     0.8701     0.8700      5.557     22.000  22200.000      6.000    41.2537    25.4665   -44.8591    -0.0975     1.9545     1.0050    -3.9990    20.6267    41.2566     2.0283    14.6405    14.6385     0.0020   295.0000     4.2213     4.185
    116     0.8749     0.8750     0.8750      5.562     24.000  22200.000      6.000    41.2537    25.3307   -45.1298    -0.0975     1.9545     1.0050    -3.9990    20.6267    41.2566     2.0399    14.6405    14.6385     0.0020   295.0000     4.2237     4.176
    117     0.8799     0.8801     0.8800      5.564     26.000  22200.000      6.000    41.2537    25.1959   -45.4024    -0.0975     1.9545     1.0050    -3.9990    20.6267    41.2566     2.0516    14.6405    14.6385     0.0020   295.0000     4.2196     4.183
    118     0.8849     0.8851     0.8850      5.552     20.000  22200.000      6.000    41.2537    25.0591   -45.6751    -0.0975     1.9545     1.0050    -3.9990    20.6267    41.2566     2.0632    14.6405    14.6385     0.0020   295.0000     4.2202     4.183
    119     0.8899     0.8900     0.8900      5.592     24.000  22200.000      6.000    41.2537    24.9232   -45.9467    -0.0975     1.9545     1.0050    -3.9990    20.6267    41.2566     2.0749    14.6405    14.6385     0.0020   295.0000     4.2202     4.183
    120     0.8950     0.8952     0.8951      5.556     17.000  22200.000      6.000    41.2537    24.7854   -46.2263    -0.0975     1.9545     1.0050    -3.9990    20.6267    41.2566     2.0868    14.6405    14.6385     0.0020   295.0000     4.2304     4.187
    121     0.8999     0.9000     0.9000      5.618     31.000  22200.000      6.000    41.2537    24.6496   -46.4930    -0.0975     1.9545     1.0050    -3.9990    20.6267    41.2566     2.0982    14.6405    14.6385     0.0020   295.0000     4.2207     4.185
    122     0.9049     0.9051     0.9050      5.519     21.000  22200.000      6.000    41.2537    24.5138   -46.7686    -0.0975     1.9545     1.0050    -3.9990    20.6267    41.2566     2.1099    14.6405    14.6385     0.0020   295.0000     4.2218     4.186
    123     0.9099     0.9100     0.9100      5.596     12.000  22200.000      6.000    41.2537    24.3750   -47.0412    -0.0975     1.9545     1.0050    -3.9990    20.6267    41.2566     2.1215    14.6405    14.6385     0.0020   295.0000     4.2226     4.186
    124     0.9149     0.9151     0.9150      5.594     15.000  22200.000      6.000    41.2537    24.2392   -47.3168    -0.0975     1.9545     1.0050    -3.9990    20.6267    41.2566     2.1332    14.6405    14.6385     0.0020   295.0000     4.2226     4.186
    125     0.9199     0.9201     0.9200      5.594     19.000  22200.000      6.000    41.2537    24.1033   -47.5904    -0.0975     1.9545     1.0050    -3.9990    20.6267    41.2566     2.1448    14.6405    14.6385     0.0020   295.0000     4.2241     4.186
    126     0.9249     0.9251     0.9250      5.558     17.000  22200.000      6.000    41.2537    23.9646   -47.8650    -0.0975     1.9545     1.0050    -3.9990    20.6267    41.2566     2.1565    14.6405    14.6385     0.0020   295.0000     4.2192     4.185
    127     0.9299     0.9301     0.9300      5.618     18.000  22200.000      6.000    41.2537    23.8268   -48.1416    -0.0975     1.9545     1.0050    -3.9990    20.6267    41.2566     2.1682    14.6405    14.6385     0.0020   295.0000     4.2201     4.187
    128     0.9349     0.9351     0.9350      5.547     19.000  22200.000      6.000    41.2537    23.6880   -48.4162    -0.0975     1.9545     1.0050    -3.9990    20.6267    41.2566     2.1798    14.6405    14.6385     0.0020   295.0000     4.2178     4.189
    129     0.9399     0.9401     0.9400      5.560      8.000  22200.000      6.000    41.2537    23.5492   -48.6938    -0.0975     1.9545     1.0050    -3.9990    20.6267    41.2566     2.1916    14.6405    14.6385     0.0020   295.0000     4.2178     4.189
    130     0.9448     0.9450     0.9450      5.598     14.000  22200.000      6.000    41.2537    23.4134   -48.9654    -0.0975     1.9545     1.0050    -3.9990    20.6267    41.2566     2.2030    14.6405    14.6385     0.0020   295.0000     4.2217     4.181
    131     0.9500     0.9502     0.9500      5.575     20.000  22200.000      6.000    41.2537    23.2756   -49.2469    -0.0975     1.9545     1.0050    -3.9990    20.6267    41.2566     2.2149    14.6405    14.6385     0.0020   295.0000     4.2222     4.184
    132     0.9549     0.9550     0.9550      5.557     19.000  22200.000      6.000    41.2537    23.1368   -49.5186    -0.0975     1.9545     1.0050    -3.9990    20.6267    41.2566     2.2264    14.6405    14.6385     0.0020   295.0000     4.2176     4.185
    133     0.9600     0.9602     0.9600      5.523     21.000  22200.000      6.000    41.2537    23.0000   -49.7991    -0.0975     1.9545     1.0050    -3.9990    20.6267    41.2566     2.2382    14.6405    14.6385     0.0020   295.0000     4.2176     4.185
    134     0.9649     0.9651     0.9650      5.543     17.000  22200.000      6.000    41.2537    22.8612   -50.0747    -0.0975     1.9545     1.0050    -3.9990    20.6267    41.2566     2.2498    14.6405    14.6385     0.0020   295.0000     4.2219     4.186
    135     0.9699     0.9701     0.9700      5.514     17.000  22200.000      6.000    41.2537    22.7215   -50.3522    -0.0975     1.9545     1.0050    -3.9990    20.6267    41.2566     2.2614    14.6405    14.6385     0.0020   295.0000     4.2208     4.185
    136     0.9749     0.9751     0.9750      5.520     15.000  22200.000      6.000    41.2537    22.5817   -50.6298    -0.0975     1.9545     1.0050    -3.9990    20.6267    41.2566     2.2731    14.6405    14.6385     0.0020   295.0000     4.2199     4.183
    137     0.9799     0.9801     0.9800      5.577     14.000  22200.000      6.000    41.2537    22.4429   -50.9074    -0.0975     1.9545     1.0050    -3.9990    20.6267    41.2566     2.2847    14.6405    14.6385     0.0020   295.0000     4.2199     4.183
    138     0.9849     0.9851     0.9850      5.578     41.000  22200.000      6.000    41.2537    22.3041   -51.1879    -0.0975     1.9545     1.0050    -3.9990    20.6267    41.2566     2.2965    14.6405    14.6385     0.0020   295.0000     4.2214     4.190
    139     0.9899     0.9901     0.9900      5.592    392.000  22200.000      6.000    41.2537    22.1644   -51.4664    -0.0975     1.9545     1.0050    -3.9990    20.6267    41.2566     2.3081    14.6405    14.6385     0.0020   295.0000     4.2193     4.186
    140     0.9949     0.9951     0.9950      5.479   1851.000  22200.000      6.000    41.2537    22.0246   -51.7450    -0.0975     1.9545     1.0050    -3.9990    20.6267    41.2566     2.3197    14.6405    14.6385     0.0020   295.0000     4.2216     4.184
    141     0.9999     1.0000     1.0000      5.579   3087.000  22200.000      6.000    41.2537    21.8848   -52.0225    -0.0975     1.9545     1.0050    -3.9990    20.6267    41.2566     2.3313    14.6405    14.6385     0.0020   295.0000     4.2212     4.187
    142     1.0049     1.0051     1.0050      5.578   1923.000  22200.000      6.000    41.2537    21.7461   -52.3040    -0.0975     1.9545     1.0050    -3.9990    20.6267    41.2566     2.3430    14.6405    14.6385     0.0020   295.0000     4.2212     4.187
    143     1.0099     1.0101     1.0100      5.588    441.000  22200.000      6.000    41.2537    21.6053   -52.5835    -0.0975     1.9545     1.0050    -3.9990    20.6267    41.2566     2.3547    14.6405    14.6385     0.0020   295.0000     4.2205     4.183
    144     1.0149     1.0151     1.0150      5.608     40.000  22200.000      6.000    41.2537    21.4656   -52.8641    -0.0975     1.9545     1.0050    -3.9990    20.6267    41.2566     2.3663    14.6405    14.6385     0.0020   295.0000     4.2198     4.184
    145     1.0199     1.0201     1.0200      5.595     10.000  22200.000      6.000    41.2537    21.3258   -53.1456    -0.0975     1.9545     1.0050    -3.9990    20.6267    41.2566     2.3780    14.6405    14.6385     0.0020   295.0000     4.2198     4.184
    146     1.0249     1.0251     1.0250      5.586     11.000  22200.000      6.000    41.2537    21.1850   -53.4251    -0.0975     1.9545     1.0050    -3.9990    20.6267    41.2566     2.3896    14.6405    14.6385     0.0020   295.0000     4.2198     4.184
    147     1.0300     1.0302     1.0300      5.580      7.000  22200.000      6.000    41.2537    21.0433   -53.7125    -0.0975     1.9545     1.0050    -3.9990    20.6267    41.2566     2.4015    14.6405    14.6385     0.0020   295.0000     4.2278     4.180
    148     1.0349     1.0351     1.0350      5.553     11.000  22200.000      6.000    41.2537    20.9026   -53.9881    -0.0975     1.9545     1.0050    -3.9990    20.6267    41.2566     2.4129    14.6405    14.6385     0.0020   295.0000     4.2193     4.184
    149     1.0399     1.0401     1.0400      5.615     11.000  22200.000      6.000    41.2537    20.7618   -54.2715    -0.0975     1.9545     1.0050    -3.9990    20.6267    41.2566     2.4246    14.6405    14.6385     0.0020   295.0000     4.2196     4.183
    150     1.0449     1.0451     1.0450      5.529      6.000  22200.000      6.000    41.2537    20.6201   -54.5560    -0.0975     1.9545     1.0050    -3.9990    20.6267    41.2566     2.4364    14.6405    14.6385     0.0020   295.0000     4.2180     4.200
    151     1.0499     1.0501     1.0500      5.554     12.000  22200.000      6.000    41.2537    20.4783   -54.8365    -0.0975     1.9545     1.0050    -3.9990    20.6267    41.2566     2.4479    14.6405    14.6385     0.0020   295.0000     4.2180     4.200
    152     1.0549     1.0551     1.0550      5.513     10.000  22200.000      6.000    41.2537    20.3376   -55.1200    -0.0975     1.9545     1.0050    -3.9990    20.6267    41.2566     2.4596    14.6405    14.6385     0.0020   295.0000     4.2290     4.168
    153     1.0599     1.0601     1.0600      5.633      5.000  22200.000      6.000    41.2537    20.1949   -55.4034    -0.0975     1.9545     1.0050    -3.9990    20.6267    41.2566     2.4712    14.6405    14.6385     0.0020   295.0000     4.2172     4.184
    154     1.0649     1.0651     1.0650      5.557      6.000  22200.000      6.000    41.2537    20.0551   -55.6889    -0.0975     1.9545     1.0050    -3.9990    20.6267    41.2566     2.4830    14.6405    14.6385     0.0020   295.0000     4.2236     4.185
    155     1.0699     1.0701     1.0700      5.601      9.000  22200.000      6.000    41.2537    19.9124   -55.9713    -0.0975     1.9545     1.0050    -3.9990    20.6267    41.2566     2.4945    14.6405    14.6385     0.0020   295.0000     4.2236     4.185
    156     1.0749     1.0751     1.0750      5.648      7.000  22200.000      6.000    41.2537    19.7697   -56.2578    -0.0975     1.9545     1.0050    -3.9990    20.6267    41.2566     2.5063    14.6405    14.6385     0.0020   295.0000     4.2171     4.189
    157     1.0799     1.0801     1.0800      5.552      8.000  22200.000      6.000    41.2537    19.6260   -56.5412    -0.0975     1.9545     1.0050    -3.9990    20.6267    41.2566     2.5179    14.6405    14.6385     0.0020   295.0000     4.2203     4.185
    158     1.0849     1.0851     1.0850      5.537      4.000  22200.000      6.000    41.2537    19.4833   -56.8286    -0.0975     1.9545     1.0050    -3.9990    20.6267    41.2566     2.5296    14.6405    14.6385     0.0020   295.0000     4.2252     4.183
    159     1.0898     1.0901     1.0900      5.575      5.000  22200.000      6.000    41.2537    19.3406   -57.1121    -0.0975     1.9545     1.0050    -3.9990    20.6267    41.2566     2.5411    14.6405    14.6385     0.0020   295.0000     4.2215     4.193
    160     1.0949     1.0951     1.0950      5.582      9.000  22200.000      6.000    41.2537    19.1978   -57.4005    -0.0975     1.9545     1.0050    -3.9990    20.6267    41.2566     2.5529    14.6405    14.6385     0.0020   295.0000     4.2215     4.193
    161     1.0999     1.1001     1.1000      5.512      2.000  22200.000      6.000    41.2537    19.0541   -57.6869    -0.0975     1.9545     1.0050    -3.9990    20.6267    41.2566     2.5645    14.6405    14.6385     0.0020   295.0000     4.2257     4.170
    162     1.1048     1.1051     1.1050      5.604      2.000  22200.000      6.000    41.2537    18.9114   -57.9713    -0.0975     1.9545     1.0050    -3.9990    20.6267    41.2566     2.5761    14.6405    14.6385     0.0020   295.0000     4.2212     4.185
    163     1.1099     1.1102     1.1100      5.471      5.000  22200.000      6.000    41.2537    18.7677   -58.2627    -0.0975     1.9545     1.0050    -3.9990    20.6267    41.2566     2.5879    14.6405    14.6385     0.0020   295.0000     4.2220     4.183
    164     1.1149     1.1151     1.1150      5.538      4.000  22200.000      6.000    41.2537    18.6240   -58.5481    -0.0975     1.9545     1.0050    -3.9990    20.6267    41.2566     2.5995    14.6405    14.6385     0.0020   295.0000     4.2220     4.183
    165     1.1199     1.1201     1.1200      5.528      6.000  22200.000      6.000    41.2537    18.4793   -58.8365    -0.0975     1.9545     1.0050    -3.9990    20.6267    41.2566     2.6111    14.6405    14.6385     0.0020   295.0000     4.2282     4.187
    166     1.1249     1.1251     1.1250      5.533      4.000  22200.000      6.000    41.2537    18.3346   -59.1249    -0.0975     1.9545     1.0050    -3.9990    20.6267    41.2566     2.6228    14.6405    14.6385     0.0020   295.0000     4.2249     4.187
    167     1.1299     1.1301     1.1300      5.569      4.000  22200.000      6.000    41.2537    18.1909   -59.4143    -0.0975     1.9545     1.0050    -3.9990    20.6267    41.2566     2.6344    14.6405    14.6385     0.0020   295.0000     4.2224     4.184
    168     1.1349     1.1351     1.1350      5.632      4.000  22200.000      6.000    41.2537    18.0463   -59.7056    -0.0975     1.9545     1.0050    -3.9990    20.6267    41.2566     2.6462    14.6405    14.6385     0.0020   295.0000     4.2128     4.181
    169     1.1398     1.1400     1.1400      5.547      7.000  22200.000      6.000    41.2537    17.9006   -59.9920    -0.0975     1.9545     1.0050    -3.9990    20.6267    41.2566     2.6577    14.6405    14.6385     0.0020   295.0000     4.2128     4.181
    170     1.1449     1.1451     1.1450      5.488     14.000  22200.000      6.000    41.2537    17.7549   -60.2843    -0.0975     1.9545     1.0050    -3.9990    20.6267    41.2566     2.6694    14.6405    14.6385     0.0020   295.0000     4.2222     4.184
    171     1.1499     1.1501     1.1500      5.542     30.000  22200.000      6.000    41.2537    17.6102   -60.5767    -0.0975     1.9545     1.0050    -3.9990    20.6267    41.2566     2.6811    14.6405    14.6385     0.0020   295.0000     4.2227     4.184
    172     1.1549     1.1551     1.1550      5.539     63.000  22200.000      6.000    41.2537    17.4646   -60.8660    -0.0975     1.9545     1.0050    -3.9990    20.6267    41.2566     2.6927    14.6405    14.6385     0.0020   295.0000     4.2215     4.189
    173     1.1600     1.1602     1.1601      5.497     46.000  22200.000      6.000    41.2537    17.3179   -61.1633    -0.0975     1.9545     1.0050    -3.9990    20.6267    41.2566     2.7046    14.6405    14.6385     0.0020   295.0000     4.2215     4.189
    174     1.1649     1.1651     1.1650      5.567     27.000  22200.000      6.000    41.2537    17.1732   -61.4497    -0.0975     1.9545     1.0050    -3.9990    20.6267    41.2566     2.7160    14.6405    14.6385     0.0020   295.0000     4.2283     4.188
    175     1.1700     1.1702     1.1700      5.573     13.000  22200.000      6.000    41.2537    17.0285   -61.7440    -0.0975     1.9545     1.0050    -3.9990    20.6267    41.2566     2.7278    14.6405    14.6385     0.0020   295.0000     4.2221     4.184
    176     1.1749     1.1751     1.1750      5.575      1.000  22200.000      6.000    41.2537    16.8809   -62.0343    -0.0975     1.9545     1.0050    -3.9990    20.6267    41.2566     2.7393    14.6405    14.6385     0.0020   295.0000     4.2208     4.184
    177     1.1799     1.1801     1.1800      5.530      8.000  22200.000      6.000    41.2537    16.7343   -62.3296    -0.0975     1.9545     1.0050    -3.9990    20.6267    41.2566     2.7510    14.6405    14.6385     0.0020   295.0000     4.2235     4.191
    178     1.1849     1.1851     1.1850      5.538      1.000  22200.000      6.000    41.2537    16.5856   -62.6229    -0.0975     1.9545     1.0050    -3.9990    20.6267    41.2566     2.7627    14.6405    14.6385     0.0020   295.0000     4.2235     4.191
    179     1.1898     1.1901     1.1900      5.573      1.000  22200.000      6.000    41.2537    16.4380   -62.9172    -0.0975     1.9545     1.0050    -3.9990    20.6267    41.2566     2.7743    14.6405    14.6385     0.0020   295.0000     4.2234     4.178
    180     1.1949     1.1951     1.1950      5.615      1.000  22200.000      6.000    41.2537    16.2923   -63.2125    -0.0975     1.9545     1.0050    -3.9990    20.6267    41.2566     2.7860    14.6405    14.6385     0.0020   295.0000     4.2259     4.184
    181     1.1999     1.2001     1.2000      5.579      5.000  22200.000      6.000    41.2537    16.1447   -63.5078    -0.0975     1.9545     1.0050    -3.9990    20.6267    41.2566     2.7977    14.6405    14.6385     0.0020   295.0000     4.2252     4.185
    182     1.2049     1.2051     1.2050      5.574      3.000  22200.000      6.000    41.2537    15.9970   -63.8030    -0.0975     1.9545     1.0050    -3.9990    20.6267    41.2566     2.8093    14.6405    14.6385     0.0020   295.0000     4.2252     4.185
    183     1.2099     1.2101     1.2100      5.531      3.000  22200.000      6.000    41.2537    15.8494   -64.0983    -0.0975     1.9545     1.0050    -3.9990    20.6267    41.2566     2.8209    14.6405    14.6385     0.0020   295.0000     4.2204     4.185
    184     1.2149     1.2152     1.2150      5.612      9.000  22200.000      6.000    41.2537    15.7008   -64.3975    -0.0975     1.9545     1.0050    -3.9990    20.6267    41.2566     2.8327    14.6405    14.6385     0.0020   295.0000     4.2253     4.185
    185     1.2199     1.2201     1.2200      5.557      1.000  22200.000      6.000    41.2537    15.5522   -64.6938    -0.0975     1.9545     1.0050    -3.9990    20.6267    41.2566     2.8443    14.6405    14.6385     0.0020   295.0000     4.2238     4.183
    186     1.2248     1.2251     1.2250      5.589      4.000  22200.000      6.000    41.2537    15.4026   -64.9900    -0.0975     1.9545     1.0050    -3.9990    20.6267    41.2566     2.8559    14.6405    14.6385     0.0020   295.0000     4.2356     4.187
    187     1.2299     1.2301     1.2300      5.567      6.000  22200.000      6.000    41.2537    15.2539   -65.2902    -0.0975     1.9545     1.0050    -3.9990    20.6267    41.2566     2.8676    14.6405    14.6385     0.0020   295.0000     4.2356     4.187
    188     1.2349     1.2351     1.2350      5.622      4.000  22200.000      6.000    41.2537    15.1053   -65.5885    -0.0975     1.9545     1.0050    -3.9990    20.6267    41.2566     2.8793    14.6405    14.6385     0.0020   295.0000     4.2238     4.185
    189     1.2399     1.2401     1.2400      5.593      2.000  22200.000      6.000    41.2537    14.9547   -65.8877    -0.0975     1.9545     1.0050    -3.9990    20.6267    41.2566     2.8909    14.6405    14.6385     0.0020   295.0000     4.2230     4.186
    190     1.2449     1.2451     1.2450      5.573      1.000  22200.000      6.000    41.2537    14.8051   -66.1869    -0.0975     1.9545     1.0050    -3.9990    20.6267    41.2566     2.9026    14.6405    14.6385     0.0020   295.0000     4.2171     4.190
    191     1.2499     1.2501     1.2500      5.558      0.000  22200.000      6.000    41.2537    14.6545   -66.4871    -0.0975     1.9545     1.0050    -3.9990    20.6267    41.2566     2.9142    14.6405    14.6385     0.0020   295.0000     4.2171     4.190
    192     1.2549     1.2551     1.2550      5.591      3.000  22200.000      6.000    41.2537    14.5039   -66.7883    -0.0975     1.9545     1.0050    -3.9990    20.6267    41.2566     2.9259    14.6405    14.6385     0.0020   295.0000     4.2261     4.188
    193     1.2598     1.2601     1.2600      5.531      4.000  22200.000      6.000    41.2537    14.3533   -67.0875    -0.0975     1.9545     1.0050    -3.9990    20.6267    41.2566     2.9375    14.6405    14.6385     0.0020   295.0000     4.2236     4.184
    194     1.2649     1.2652     1.2650      5.525      5.000  22200.000      6.000    41.2537    14.2037   -67.3916    -0.0975     1.9545     1.0050    -3.9990    20.6267    41.2566     2.9492    14.6405    14.6385     0.0020   295.0000     4.2219     4.182
    195     1.2699     1.2701     1.2700      5.513      6.000  22200.000      6.000    41.2537    14.0531   -67.6928    -0.0975     1.9545     1.0050    -3.9990    20.6267    41.2566     2.9608    14.6405    14.6385     0.0020   295.0000     4.2157     4.183
    196     1.2749     1.2751     1.2749      5.585      2.000  22200.000      6.000    41.2537    13.9026   -67.9940    -0.0975     1.9545     1.0050    -3.9990    20.6267    41.2566     2.9724    14.6405    14.6385     0.0020   295.0000     4.2157     4.183
    197     1.2799     1.2801     1.2800      5.515      2.000  22200.000      6.000    41.2537    13.7500   -68.2991    -0.0975     1.9545     1.0050    -3.9990    20.6267    41.2566     2.9842    14.6405    14.6385     0.0020   295.0000     4.2227     4.181
    198     1.2850     1.2852     1.2851      5.612      2.000  22200.000      6.000    41.2537    13.5955   -68.6072    -0.0975     1.9545     1.0050    -3.9990    20.6267    41.2566     2.9960    14.6405    14.6385     0.0020   295.0000     4.2221     4.181
    199     1.2898     1.2901     1.2900      5.587      1.000  22200.000      6.000    41.2537    13.4449   -68.9064    -0.0975     1.9545     1.0050    -3.9990    20.6267    41.2566     3.0074    14.6405    14.6385     0.0020   295.0000     4.2219     4.188
    200     1.2949     1.2951     1.2950      5.600      6.000  22200.000      6.000    41.2537    13.2923   -69.2135    -0.0975     1.9545     1.0050    -3.9990    20.6267    41.2566     3.0192    14.6405    14.6385     0.0020   295.0000     4.2219     4.188
    201     1.2998     1.3001     1.3000      5.548      6.000  22200.000      6.000    41.2537    13.1398   -69.5166    -0.0975     1.9545     1.0050    -3.9990    20.6267    41.2566     3.0307    14.6405    14.6385     0.0020   295.0000     4.2211     4.177
    202     1.3049     1.3052     1.3050      5.571      2.000  22200.000      6.000    41.2537    12.9872   -69.8247    -0.0975     1.9545     1.0050    -3.9990    20.6267    41.2566     3.0425    14.6405    14.6385     0.0020   295.0000     4.2211     4.185
    203     1.3099     1.3101     1.3100      5.570      2.000  22200.000      6.000    41.2537    12.8337   -70.1298    -0.0975     1.9545     1.0050    -3.9990    20.6267    41.2566     3.0541    14.6405    14.6385     0.0020   295.0000     4.2235     4.186
    204     1.3149     1.3152     1.3150      5.577      5.000  22200.000      6.000    41.2537    12.6801   -70.4389    -0.0975     1.9545     1.0050    -3.9990    20.6267    41.2566     3.0658    14.6405    14.6385     0.0020   295.0000     4.2225     4.188
    205     1.3199     1.3201     1.3200      5.528     11.000  22200.000      6.000    41.2537    12.5256   -70.7469    -0.0975     1.9545     1.0050    -3.9990    20.6267    41.2566     3.0775    14.6405    14.6385     0.0020   295.0000     4.2225     4.188
    206     1.3248     1.3251     1.3250      5.568     24.000  22200.000      6.000    41.2537    12.3711   -71.0530    -0.0975     1.9545     1.0050    -3.9990    20.6267    41.2566     3.0890    14.6405    14.6385     0.0020   295.0000     4.2207     4.183
    207     1.3299     1.3301     1.3300      5.563     50.000  22200.000      6.000    41.2537    12.2175   -71.3631    -0.0975     1.9545     1.0050    -3.9990    20.6267    41.2566     3.1007    14.6405    14.6385     0.0020   295.0000     4.2218     4.181
    208     1.3348     1.3351     1.3350      5.541     71.000  22200.000      6.000    41.2537    12.0610   -71.6731    -0.0975     1.9545     1.0050    -3.9990    20.6267    41.2566     3.1124    14.6405    14.6385     0.0020   295.0000     4.2201     4.190
    209     1.3398     1.3401     1.3400      5.511     48.000  22200.000      6.000    41.2537    11.9065   -71.9822    -0.0975     1.9545     1.0050    -3.9990    20.6267    41.2566     3.1240    14.6405    14.6385     0.0020   295.0000     4.2201     4.190
    210     1.3449     1.3451     1.3450      5.629     22.000  22200.000      6.000    41.2537    11.7510   -72.2952    -0.0975     1.9545     1.0050    -3.9990    20.6267    41.2566     3.1357    14.6405    14.6385     0.0020   295.0000     4.2226     4.188
    211     1.3499     1.3501     1.3500      5.597      9.000  22200.000      6.000    41.2537    11.5955   -72.6062    -0.0975     1.9545     1.0050    -3.9990    20.6267    41.2566     3.1474    14.6405    14.6385     0.0020   295.0000     4.2238     4.186
    212     1.3548     1.3551     1.3550      5.550      0.000  22200.000      6.000    41.2537    11.4400   -72.9162    -0.0975     1.9545     1.0050    -3.9990    20.6267    41.2566     3.1590    14.6405    14.6385     0.0020   295.0000     4.2243     4.184
    213     1.3599     1.3601     1.3600      5.583      5.000  22200.000      6.000    41.2537    11.2835   -73.2312    -0.0975     1.9545     1.0050    -3.9990    20.6267    41.2566     3.1707    14.6405    14.6385     0.0020   295.0000     4.2239     4.180
    214     1.3649     1.3652     1.3650      5.553      1.000  22200.000      6.000    41.2537    11.1280   -73.5442    -0.0975     1.9545     1.0050    -3.9990    20.6267    41.2566     3.1823    14.6405    14.6385     0.0020   295.0000     4.2239     4.180
    215     1.3699     1.3701     1.3700      5.584      2.000  22200.000      6.000    41.2537    10.9695   -73.8582    -0.0975     1.9545     1.0050    -3.9990    20.6267    41.2566     3.1940    14.6405    14.6385     0.0020   295.0000     4.2164     4.183
    216     1.3749     1.3752     1.3750      5.589      2.000  22200.000      6.000    41.2537    10.8130   -74.1731    -0.0975     1.9545     1.0050    -3.9990    20.6267    41.2566     3.2057    14.6405    14.6385     0.0020   295.0000     4.2223     4.182
    217     1.3798     1.3801     1.3800      5.594      4.000  22200.000      6.000    41.2537    10.6545   -74.4861    -0.0975     1.9545     1.0050    -3.9990    20.6267    41.2566     3.2172    14.6405    14.6385     0.0020   295.0000     4.2222     4.184
    218     1.3848     1.3851     1.3850      5.577      3.000  22200.000      6.000    41.2537    10.4961   -74.8040    -0.0975     1.9545     1.0050    -3.9990    20.6267    41.2566     3.2290    14.6405    14.6385     0.0020   295.0000     4.2222     4.184
    219     1.3898     1.3901     1.3900      5.568      3.000  22200.000      6.000    41.2537    10.3376   -75.1190    -0.0975     1.9545     1.0050    -3.9990    20.6267    41.2566     3.2406    14.6405    14.6385     0.0020   295.0000     4.2324     4.183
    220     1.3949     1.3952     1.3949      5.542      3.000  22200.000      6.000    41.2537    10.1831   -75.4369    -0.0975     1.9545     1.0050    -3.9990    20.6267    41.2566     3.2522    14.6405    14.6385     0.0020   295.0000     4.2199     4.181
    221     1.4000     1.4002     1.3999      5.568      3.000  22200.000      6.000    41.2537    10.0236   -75.7568    -0.0975     1.9545     1.0050    -3.9990    20.6267    41.2566     3.2640    14.6405    14.6385     0.0020   295.0000     4.2250     4.183
    222     1.4049     1.4051     1.4050      5.500      0.000  22200.000      6.000    41.2537     9.8622   -76.0747    -0.0975     1.9545     1.0050    -3.9990    20.6267    41.2566     3.2756    14.6405    14.6385     0.0020   295.0000     4.2182     4.180
    223     1.4099     1.4102     1.4100      5.611      3.000  22200.000      6.000    41.2537     9.7018   -76.3956    -0.0975     1.9545     1.0050    -3.9990    20.6267    41.2566     3.2873    14.6405    14.6385     0.0020   295.0000     4.2182     4.180
    224     1.4148     1.4151     1.4150      5.478      2.000  22200.000      6.000    41.2537     9.5404   -76.7135    -0.0975     1.9545     1.0050    -3.9990    20.6267    41.2566     3.2989    14.6405    14.6385     0.0020   295.0000     4.2221     4.184
    225     1.4197     1.4200     1.4201      5.556      3.000  22200.000      6.000    41.2537     9.3770   -77.0333    -0.0975     1.9545     1.0050    -3.9990    20.6267    41.2566     3.3105    14.6405    14.6385     0.0020   295.0000     4.2234     4.183
    226     1.4249     1.4251     1.4250      5.537      5.000  22200.000      6.000    41.2537     9.2215   -77.3562    -0.0975     1.9545     1.0050    -3.9990    20.6267    41.2566     3.3222    14.6405    14.6385     0.0020   295.0000     4.2208     4.199
    227     1.4299     1.4301     1.4300      5.579      3.000  22200.000      6.000    41.2537     9.0610   -77.6780    -0.0975     1.9545     1.0050    -3.9990    20.6267    41.2566     3.3338    14.6405    14.6385     0.0020   295.0000     4.2208     4.199
    228     1.4349     1.4352     1.4349      5.521      2.000  22200.000      6.000    41.2537     8.9006   -78.0019    -0.0975     1.9545     1.0050    -3.9990    20.6267    41.2566     3.3455    14.6405    14.6385     0.0020   295.0000     4.2243     4.192
    229     1.4398     1.4401     1.4400      5.563      1.000  22200.000      6.000    41.2537     8.7343   -78.3247    -0.0975     1.9545     1.0050    -3.9990    20.6267    41.2566     3.3572    14.6405    14.6385     0.0020   295.0000     4.2253     4.183
    230     1.4449     1.4451     1.4450      5.566      2.000  22200.000      6.000    41.2537     8.5728   -78.6515    -0.0975     1.9545     1.0050    -3.9990    20.6267    41.2566     3.3689    14.6405    14.6385     0.0020   295.0000     4.2200     4.184
    231     1.4498     1.4501     1.4500      5.579      3.000  22200.000      6.000    41.2537     8.4114   -78.9733    -0.0975     1.9545     1.0050    -3.9990    20.6267    41.2566     3.3804    14.6405    14.6385     0.0020   295.0000     4.2336     4.187
    232     1.4549     1.4552     1.4550      5.502      1.000  22200.000      6.000    41.2537     8.2480   -79.3030    -0.0975     1.9545     1.0050    -3.9990    20.6267    41.2566     3.3922    14.6405    14.6385     0.0020   295.0000     4.2336     4.187
    233     1.4598     1.4601     1.4600      5.592      3.000  22200.000      6.000    41.2537     8.0856   -79.6269    -0.0975     1.9545     1.0050    -3.9990    20.6267    41.2566     3.4038    14.6405    14.6385     0.0020   295.0000     4.2201     4.186
    234     1.4649     1.4651     1.4650      5.551      3.000  22200.000      6.000    41.2537     7.9222   -79.9546    -0.0975     1.9545     1.0050    -3.9990    20.6267    41.2566     3.4154    14.6405    14.6385     0.0020   295.0000     4.2211     4.185
    235     1.4699     1.4701     1.4700      5.550      1.000  22200.000      6.000    41.2537     7.7579   -80.2833    -0.0975     1.9545     1.0050    -3.9990    20.6267    41.2566     3.4271    14.6405    14.6385     0.0020   295.0000     4.2235     4.186
    236     1.4749     1.4752     1.4750      5.612      0.000  22200.000      6.000    41.2537     7.5935   -80.6131    -0.0975     1.9545     1.0050    -3.9990    20.6267    41.2566     3.4388    14.6405    14.6385     0.0020   295.0000     4.2235     4.186
    237     1.4799     1.4802     1.4800      5.625      3.000  22200.000      6.000    41.2537     7.4281   -80.9428    -0.0975     1.9545     1.0050    -3.9990    20.6267    41.2566     3.4504    14.6405    14.6385     0.0020   295.0000     4.2287     4.180
    238     1.4849     1.4852     1.4850      5.607     13.000  22200.000      6.000    41.2537     7.2628   -81.2735    -0.0975     1.9545     1.0050    -3.9990    20.6267    41.2566     3.4621    14.6405    14.6385     0.0020   295.0000     4.2207     4.187
    239     1.4899     1.4902     1.4900      5.550     86.000  22200.000      6.000    41.2537     7.0974   -81.6062    -0.0975     1.9545     1.0050    -3.9990    20.6267    41.2566     3.4738    14.6405    14.6385     0.0020   295.0000     4.2239     4.184
    240     1.4949     1.4951     1.4950      5.548    211.000  22200.000      6.000    41.2537     6.9321   -81.9359    -0.0975     1.9545     1.0050    -3.9990    20.6267    41.2566     3.4854    14.6405    14.6385     0.0020   295.0000     4.2265     4.186
    241     1.4999     1.5001     1.5000      5.548    261.000  22200.000      6.000    41.2537     6.7638   -82.2706    -0.0975     1.9545     1.0050    -3.9990    20.6267    41.2566     3.4971    14.6405    14.6385     0.0020   295.0000     4.2265     4.186
    242     1.5049     1.5051     1.5050      5.524    285.000  22200.000      6.000    41.2537     6.5965   -82.6052    -0.0975     1.9545     1.0050    -3.9990    20.6267    41.2566     3.5087    14.6405    14.6385     0.0020   295.0000     4.2196     4.186
    243     1.5098     1.5101     1.5100      5.542    201.000  22200.000      6.000    41.2537     6.4291   -82.9389    -0.0975     1.9545     1.0050    -3.9990    20.6267    41.2566     3.5204    14.6405    14.6385     0.0020   295.0000     4.2209     4.184
    244     1.5149     1.5152     1.5150      5.544     86.000  22200.000      6.000    41.2537     6.2628   -83.2755    -0.0975     1.9545     1.0050    -3.9990    20.6267    41.2566     3.5320    14.6405    14.6385     0.0020   295.0000     4.2183     4.182
    245     1.5200     1.5203     1.5200      5.613      5.000  22200.000      6.000    41.2537     6.0935   -83.6160    -0.0975     1.9545     1.0050    -3.9990    20.6267    41.2566     3.5438    14.6405    14.6385     0.0020   295.0000     4.2183     4.182
    246     1.5249     1.5251     1.5250      5.566      4.000  22200.000      6.000    41.2537     5.9252   -83.9487    -0.0975     1.9545     1.0050    -3.9990    20.6267    41.2566     3.5553    14.6405    14.6385     0.0020   295.0000     4.2186     4.188
    247     1.5299     1.5301     1.5300      5.580      3.000  22200.000      6.000    41.2537     5.7549   -84.2883    -0.0975     1.9545     1.0050    -3.9990    20.6267    41.2566     3.5670    14.6405    14.6385     0.0020   295.0000     4.2250     4.184
    248     1.5349     1.5352     1.5350      5.578      5.000  22200.000      6.000    41.2537     5.5856   -84.6278    -0.0975     1.9545     1.0050    -3.9990    20.6267    41.2566     3.5787    14.6405    14.6385     0.0020   295.0000     4.2220     4.182
    249     1.5398     1.5401     1.5400      5.630      2.000  22200.000      6.000    41.2537     5.4144   -84.9664    -0.0975     1.9545     1.0050    -3.9990    20.6267    41.2566     3.5903    14.6405    14.6385     0.0020   295.0000     4.2209     4.198
    250     1.5449     1.5452     1.5449      5.615      3.000  22200.000      6.000    41.2537     5.2470   -85.3099    -0.0975     1.9545     1.0050    -3.9990    20.6267    41.2566     3.6020    14.6405    14.6385     0.0020   295.0000     4.2209     4.198
    251     1.5498     1.5501     1.5500      5.595      2.000  22200.000      6.000    41.2537     5.0738   -85.6505    -0.0975     1.9545     1.0050    -3.9990    20.6267    41.2566     3.6136    14.6405    14.6385     0.0020   295.0000     4.2227     4.185
    252     1.5549     1.5552     1.5549      5.528      3.000  22200.000      6.000    41.2537     4.9045   -85.9920    -0.0975     1.9545     1.0050    -3.9990    20.6267    41.2566     3.6252    14.6405    14.6385     0.0020   295.0000     4.2217     4.186
    253     1.5599     1.5602     1.5600      5.550      2.000  22200.000      6.000    41.2537     4.7303   -86.3385    -0.0975     1.9545     1.0050    -3.9990    20.6267    41.2566     3.6370    14.6405    14.6385     0.0020   295.0000     4.2237     4.183
    254     1.5649     1.5652     1.5650      5.590      1.000  22200.000      6.000    41.2537     4.5571   -86.6839    -0.0975     1.9545     1.0050    -3.9990    20.6267    41.2566     3.6486    14.6405    14.6385     0.0020   295.0000     4.2195     4.181
    255     1.5697     1.5700     1.5700      5.571      1.000  22200.000      6.000    41.2537     4.3839   -87.0255    -0.0975     1.9545     1.0050    -3.9990    20.6267    41.2566     3.6601    14.6405    14.6385     0.0020   295.0000     4.2195     4.181
    256     1.5748     1.5751     1.5750      5.557      2.000  22200.000      6.000    41.2537     4.2116   -87.3749    -0.0975     1.9545     1.0050    -3.9990    20.6267    41.2566     3.6719    14.6405    14.6385     0.0020   295.0000     4.2172     4.183
    257     1.5799     1.5802     1.5800      5.593      1.000  22200.000      6.000    41.2537     4.0374   -87.7263    -0.0975     1.9545     1.0050    -3.9990    20.6267    41.2566     3.6837    14.6405    14.6385     0.0020   295.0000     4.2198     4.183
    258     1.5848     1.5851     1.5850      5.609      1.000  22200.000      6.000    41.2537     3.8642   -88.0708    -0.0975     1.9545     1.0050    -3.9990    20.6267    41.2566     3.6952    14.6405    14.6385     0.0020   295.0000     4.2264     4.185
    259     1.5899     1.5902     1.5900      5.548      4.000  22200.000      6.000    41.2537     3.6890   -88.4251    -0.0975     1.9545     1.0050    -3.9990    20.6267    41.2566     3.7070    14.6405    14.6385     0.0020   295.0000     4.2264     4.185
    260     1.5949     1.5952     1.5950      5.590      1.000  22200.000      6.000    41.2537     3.5118   -88.7755    -0.0975     1.9545     1.0050    -3.9990    20.6267    41.2566     3.7186    14.6405    14.6385     0.0020   295.0000     4.2224     4.182
    261     1.5998     1.6001     1.6000      5.552      2.000  22200.000      6.000    41.2537     3.3366   -89.1259    -0.0975     1.9545     1.0050    -3.9990    20.6267    41.2566     3.7302    14.6405    14.6385     0.0020   295.0000     4.2214     4.184
    262     1.6049     1.6052     1.6050      5.614      2.000  22200.000      6.000    41.2537     3.1604   -89.4792    -0.0975     1.9545     1.0050    -3.9990    20.6267    41.2566     3.7419    14.6405    14.6385     0.0020   295.0000     4.2186     4.185
    263     1.6099     1.6102     1.6100      5.569      2.000  22200.000      6.000    41.2537     2.9823   -89.8345    -0.0975     1.9545     1.0050    -3.9990    20.6267    41.2566     3.7535    14.6405    14.6385     0.0020   295.0000     4.2175     4.189
    264     1.6148     1.6152     1.6150      5.527      4.000  22200.000      6.000    41.2537     2.8061   -90.1879    -0.0975     1.9545     1.0050    -3.9990    20.6267    41.2566     3.7651    14.6405    14.6385     0.0020   295.0000     4.2175     4.189
    265     1.6198     1.6201     1.6200      5.575      1.000  22200.000      6.000    41.2537     2.6260   -90.5461    -0.0975     1.9545     1.0050    -3.9990    20.6267    41.2566     3.7769    14.6405    14.6385     0.0020   295.0000     4.2214     4.185
    266     1.6248     1.6251     1.6250      5.581      4.000  22200.000      6.000    41.2537     2.4469   -90.9024    -0.0975     1.9545     1.0050    -3.9990    20.6267    41.2566     3.7885    14.6405    14.6385     0.0020   295.0000     4.2239     4.181
    267     1.6300     1.6303     1.6300      5.547      3.000  22200.000      6.000    41.2537     2.2697   -91.2666    -0.0975     1.9545     1.0050    -3.9990    20.6267    41.2566     3.8003    14.6405    14.6385     0.0020   295.0000     4.2200     4.184
    268     1.6348     1.6352     1.6350      5.605      2.000  22200.000      6.000    41.2537     2.0886   -91.6219    -0.0975     1.9545     1.0050    -3.9990    20.6267    41.2566     3.8118    14.6405    14.6385     0.0020   295.0000     4.2146     4.177
    269     1.6398     1.6401     1.6400      5.529      5.000  22200.000      6.000    41.2537     1.9075   -91.9832    -0.0975     1.9545     1.0050    -3.9990    20.6267    41.2566     3.8235    14.6405    14.6385     0.0020   295.0000     4.2146     4.177
    270     1.6448     1.6451     1.6450      5.650      0.000  22200.000      6.000    41.2537     1.7274   -92.3444    -0.0975     1.9545     1.0050    -3.9990    20.6267    41.2566     3.8351    14.6405    14.6385     0.0020   295.0000     4.2275     4.191
    271     1.6499     1.6502     1.6500      5.536      5.000  22200.000      6.000    41.2537     1.5443   -92.7105    -0.0975     1.9545     1.0050    -3.9990    20.6267    41.2566     3.8468    14.6405    14.6385     0.0020   295.0000     4.2194     4.182
    272     1.6548     1.6551     1.6550      5.561      3.000  22200.000      6.000    41.2537     1.3632   -93.0727    -0.0975     1.9545     1.0050    -3.9990    20.6267    41.2566     3.8584    14.6405    14.6385     0.0020   295.0000     4.2215     4.181
    273     1.6598     1.6602     1.6600      5.561      2.000  22200.000      6.000    41.2537     1.1811   -93.4379    -0.0975     1.9545     1.0050    -3.9990    20.6267    41.2566     3.8700    14.6405    14.6385     0.0020   295.0000     4.2228     4.179
    274     1.6648     1.6652     1.6650      5.593      1.000  22200.000      6.000    41.2537     0.9961   -93.8070    -0.0975     1.9545     1.0050    -3.9990    20.6267    41.2566     3.8818    14.6405    14.6385     0.0020   295.0000     4.2228     4.179
    275     1.6699     1.6702     1.6700      5.591      3.000  22200.000      6.000    41.2537     0.8130   -94.1751    -0.0975     1.9545     1.0050    -3.9990    20.6267    41.2566     3.8934    14.6405    14.6385     0.0020   295.0000     4.2222     4.179
    276     1.6748     1.6751     1.6750      5.501      0.000  22200.000      6.000    41.2537     0.6270   -94.5432    -0.0975     1.9545     1.0050    -3.9990    20.6267    41.2566     3.9050    14.6405    14.6385     0.0020   295.0000     4.2227     4.182
    277     1.6798     1.6801     1.6800      5.567      2.000  22200.000      6.000    41.2537     0.4409   -94.9152    -0.0975     1.9545     1.0050    -3.9990    20.6267    41.2566     3.9167    14.6405    14.6385     0.0020   295.0000     4.2208     4.181
    278     1.6849     1.6852     1.6850      5.587      0.000  22200.000      6.000    41.2537     0.2549   -95.2893    -0.0975     1.9545     1.0050    -3.9990    20.6267    41.2566     3.9284    14.6405    14.6385     0.0020   295.0000     4.2208     4.181
    279     1.6898     1.6902     1.6900      5.589      1.000  22200.000      6.000    41.2537     0.0689   -95.6613    -0.0975     1.9545     1.0050    -3.9990    20.6267    41.2566     3.9400    14.6405    14.6385     0.0020   295.0000     4.2342     4.173
    280     1.6948     1.6951     1.6950      5.466      3.000  22200.000      6.000    41.2537    -0.1171   -96.0343    -0.0975     1.9545     1.0050    -3.9990    20.6267    41.2566     3.9516    14.6405    14.6385     0.0020   295.0000     4.2226     4.181
    281     1.6999     1.7002     1.7000      5.544      6.000  22200.000      6.000    41.2537    -0.3071   -96.4143    -0.0975     1.9545     1.0050    -3.9990    20.6267    41.2566     3.9634    14.6405    14.6385     0.0020   295.0000     4.2221     4.179
    282     1.7048     1.7051     1.7050      5.540      2.000  22200.000      6.000    41.2537    -0.4961   -96.7902    -0.0975     1.9545     1.0050    -3.9990    20.6267    41.2566     3.9750    14.6405    14.6385     0.0020   295.0000     4.2240     4.179
    283     1.7098     1.7101     1.7101      5.514      3.000  22200.000      6.000    41.2537    -0.6870   -97.1702    -0.0975     1.9545     1.0050    -3.9990    20.6267    41.2566     3.9867    14.6405    14.6385     0.0020   295.0000     4.2240     4.179
    284     1.7148     1.7152     1.7150      5.481      2.000  22200.000      6.000    41.2537    -0.8740   -97.5491    -0.0975     1.9545     1.0050    -3.9990    20.6267    41.2566     3.9983    14.6405    14.6385     0.0020   295.0000     4.2292     4.176
    285     1.7198     1.7202     1.7200      5.587      2.000  22200.000      6.000    41.2537    -1.0659   -97.9320    -0.0975     1.9545     1.0050    -3.9990    20.6267    41.2566     4.0100    14.6405    14.6385     0.0020   295.0000     4.2232     4.180
    286     1.7248     1.7252     1.7250      5.445      3.000  22200.000      6.000    41.2537    -1.2569   -98.3148    -0.0975     1.9545     1.0050    -3.9990    20.6267    41.2566     4.0216    14.6405    14.6385     0.0020   295.0000     4.2214     4.177
    287     1.7300     1.7303     1.7300      5.587      0.000  22200.000      6.000    41.2537    -1.4518   -98.7076    -0.0975     1.9545     1.0050    -3.9990    20.6267    41.2566     4.0335    14.6405    14.6385     0.0020   295.0000     4.2182     4.172
    288     1.7347     1.7350     1.7351      5.569      2.000  22200.000      6.000    41.2537    -1.6457   -99.0845    -0.0975     1.9545     1.0050    -3.9990    20.6267    41.2566     4.0449    14.6405    14.6385     0.0020   295.0000     4.2182     4.172
    289     1.7399     1.7402     1.7400      5.520      3.000  22200.000      6.000    41.2537    -1.8366   -99.4753    -0.0975     1.9545     1.0050    -3.9990    20.6267    41.2566     4.0566    14.6405    14.6385     0.0020   295.0000     4.2215     4.187
    290     1.7448     1.7452     1.7450      5.553      1.000  22200.000      6.000    41.2537    -2.0315   -99.8631    -0.0975     1.9545     1.0050    -3.9990    20.6267    41.2566     4.0682    14.6405    14.6385     0.0020   295.0000     4.2234     4.177
    291     1.7499     1.7502     1.7500      5.538      1.000  22200.000      6.000    41.2537    -2.2283  -100.2568    -0.0975     1.9545     1.0050    -3.9990    20.6267    41.2566     4.0799    14.6405    14.6385     0.0020   295.0000     4.2211     4.177
    292     1.7548     1.7551     1.7550      5.560      3.000  22200.000      6.000    41.2537    -2.4252  -100.6485    -0.0975     1.9545     1.0050    -3.9990    20.6267    41.2566     4.0916    14.6405    14.6385     0.0020   295.0000     4.2211     4.177
    293     1.7598     1.7601     1.7600      5.607      4.000  22200.000      6.000    41.2537    -2.6220  -101.0422    -0.0975     1.9545     1.0050    -3.9990    20.6267    41.2566     4.1032    14.6405    14.6385     0.0020   295.0000     4.2256     4.174
    294     1.7648     1.7652     1.7650      5.619      2.000  22200.000      6.000    41.2537    -2.8189  -101.4379    -0.0975     1.9545     1.0050    -3.9990    20.6267    41.2566     4.1148    14.6405    14.6385     0.0020   295.0000     4.2238     4.177
    295     1.7699     1.7702     1.7700      5.567      3.000  22200.000      6.000    41.2537    -3.0177  -101.8375    -0.0975     1.9545     1.0050    -3.9990    20.6267    41.2566     4.1266    14.6405    14.6385     0.0020   295.0000     4.2244     4.172
    296     1.7748     1.7752     1.7750      5.561      2.000  22200.000      6.000    41.2537    -3.2185  -102.2361    -0.0975     1.9545     1.0050    -3.9990    20.6267    41.2566     4.1382    14.6405    14.6385     0.0020   295.0000     4.2255     4.172
    297     1.7798     1.7801     1.7800      5.569      3.000  22200.000      6.000    41.2537    -3.4193  -102.6367    -0.0975     1.9545     1.0050    -3.9990    20.6267    41.2566     4.1498    14.6405    14.6385     0.0020   295.0000     4.2255     4.172
    298     1.7847     1.7851     1.7850      5.491      1.000  22200.000      6.000    41.2537    -3.6211  -103.0383    -0.0975     1.9545     1.0050    -3.9990    20.6267    41.2566     4.1614    14.6405    14.6385     0.0020   295.0000     4.2224     4.170
    299     1.7898     1.7902     1.7900      5.557      0.000  22200.000      6.000    41.2537    -3.8219  -103.4448    -0.0975     1.9545     1.0050    -3.9990    20.6267    41.2566     4.1732    14.6405    14.6385     0.0020   295.0000     4.2173     4.175
    300     1.7948     1.7952     1.7950      5.622      2.000  22200.000      6.000    41.2537    -4.0256  -103.8513    -0.0975     1.9545     1.0050    -3.9990    20.6267    41.2566     4.1848    14.6405    14.6385     0.0020   295.0000     4.2218     4.174
    301     1.7998     1.8002     1.8000      5.582      1.000  22200.000      6.000    41.2537    -4.2293  -104.2597    -0.0975     1.9545     1.0050    -3.9990    20.6267    41.2566     4.1965    14.6405    14.6385     0.0020   295.0000     4.2240     4.173
    302     1.8049     1.8052     1.8050      5.503      3.000  22200.000      6.000    41.2537    -4.4350  -104.6711    -0.0975     1.9545     1.0050    -3.9990    20.6267    41.2566     4.2082    14.6405    14.6385     0.0020   295.0000     4.2240     4.173
    303     1.8098     1.8101     1.8101      5.587      1.000  22200.000      6.000    41.2537    -4.6437  -105.0826    -0.0975     1.9545     1.0050    -3.9990    20.6267    41.2566     4.2198    14.6405    14.6385     0.0020   295.0000     4.2205     4.175
    304     1.8148     1.8152     1.8150      5.528      3.000  22200.000      6.000    41.2537    -4.8474  -105.4959    -0.0975     1.9545     1.0050    -3.9990    20.6267    41.2566     4.2314    14.6405    14.6385     0.0020   295.0000     4.2178     4.175
    305     1.8198     1.8202     1.8200      5.532      4.000  22200.000      6.000    41.2537    -5.0561  -105.9123    -0.0975     1.9545     1.0050    -3.9990    20.6267    41.2566     4.2431    14.6405    14.6385     0.0020   295.0000     4.2217     4.172
    306     1.8249     1.8253     1.8250      5.542      1.000  22200.000      6.000    41.2537    -5.2648  -106.3335    -0.0975     1.9545     1.0050    -3.9990    20.6267    41.2566     4.2548    14.6405    14.6385     0.0020   295.0000     4.2215     4.154
    307     1.8298     1.8302     1.8300      5.618      4.000  22200.000      6.000    41.2537    -5.4754  -106.7509    -0.0975     1.9545     1.0050    -3.9990    20.6267    41.2566     4.2664    14.6405    14.6385     0.0020   295.0000     4.2215     4.154
    308     1.8348     1.8351     1.8350      5.572      0.000  22200.000      6.000    41.2537    -5.6870  -107.1721    -0.0975     1.9545     1.0050    -3.9990    20.6267    41.2566     4.2780    14.6405    14.6385     0.0020   295.0000     4.2239     4.179
    309     1.8398     1.8402     1.8400      5.610      3.000  22200.000      6.000    41.2537    -5.8986  -107.5973    -0.0975     1.9545     1.0050    -3.9990    20.6267    41.2566     4.2897    14.6405    14.6385     0.0020   295.0000     4.2242     4.175
    310     1.8449     1.8452     1.8449      5.551      2.000  22200.000      6.000    41.2537    -6.1102  -108.0235    -0.0975     1.9545     1.0050    -3.9990    20.6267    41.2566     4.3014    14.6405    14.6385     0.0020   295.0000     4.2241     4.173
    311     1.8498     1.8502     1.8499      5.581      0.000  22200.000      6.000    41.2537    -6.3248  -108.4517    -0.0975     1.9545     1.0050    -3.9990    20.6267    41.2566     4.3130    14.6405    14.6385     0.0020   295.0000     4.2269     4.165
    312     1.8547     1.8551     1.8551      5.581      0.000  22200.000      6.000    41.2537    -6.5453  -108.8837    -0.0975     1.9545     1.0050    -3.9990    20.6267    41.2566     4.3247    14.6405    14.6385     0.0020   295.0000     4.2269     4.165
    313     1.8598     1.8602     1.8599      5.541      3.000  22200.000      6.000    41.2537    -6.7569  -109.3158    -0.0975     1.9545     1.0050    -3.9990    20.6267    41.2566     4.3363    14.6405    14.6385     0.0020   295.0000     4.2294     4.184
    314     1.8648     1.8652     1.8650      5.586      2.000  22200.000      6.000    41.2537    -6.9754  -109.7519    -0.0975     1.9545     1.0050    -3.9990    20.6267    41.2566     4.3480    14.6405    14.6385     0.0020   295.0000     4.2230     4.177
    315     1.8700     1.8703     1.8699      5.473     12.000  22200.000      6.000    41.2537    -7.1939  -110.1938    -0.0975     1.9545     1.0050    -3.9990    20.6267    41.2566     4.3598    14.6405    14.6385     0.0020   295.0000     4.2202     4.171
    316     1.8747     1.8751     1.8751      5.573     16.000  22200.000      6.000    41.2537    -7.4173  -110.6298    -0.0975     1.9545     1.0050    -3.9990    20.6267    41.2566     4.3713    14.6405    14.6385     0.0020   295.0000     4.2086     4.158
    317     1.8798     1.8801     1.8800      5.569     27.000  22200.000      6.000    41.2537    -7.6368  -111.0727    -0.0975     1.9545     1.0050    -3.9990    20.6267    41.2566     4.3830    14.6405    14.6385     0.0020   295.0000     4.2086     4.158
    318     1.8848     1.8852     1.8850      5.535     38.000  22200.000      6.000    41.2537    -7.8602  -111.5196    -0.0975     1.9545     1.0050    -3.9990    20.6267    41.2566     4.3947    14.6405    14.6385     0.0020   295.0000     4.2250     4.196
    319     1.8897     1.8901     1.8901      5.524     29.000  22200.000      6.000    41.2537    -8.0846  -111.9645    -0.0975     1.9545     1.0050    -3.9990    20.6267    41.2566     4.4062    14.6405    14.6385     0.0020   295.0000     4.2212     4.174
    320     1.8949     1.8952     1.8950      5.496     36.000  22200.000      6.000    41.2537    -8.3091  -112.4192    -0.0975     1.9545     1.0050    -3.9990    20.6267    41.2566     4.4180    14.6405    14.6385     0.0020   295.0000     4.2244     4.173
    321     1.8998     1.9002     1.9000      5.549     48.000  22200.000      6.000    41.2537    -8.5344  -112.8700    -0.0975     1.9545     1.0050    -3.9990    20.6267    41.2566     4.4296    14.6405    14.6385     0.0020   295.0000     4.2124     4.158
    322     1.9048     1.9052     1.9050      5.551     27.000  22200.000      6.000    41.2537    -8.7638  -113.3276    -0.0975     1.9545     1.0050    -3.9990    20.6267    41.2566     4.4413    14.6405    14.6385     0.0020   295.0000     4.2124     4.158
    323     1.9100     1.9104     1.9099      5.511     20.000  22200.000      6.000    41.2537    -8.9911  -113.7902    -0.0975     1.9545     1.0050    -3.9990    20.6267    41.2566     4.4531    14.6405    14.6385     0.0020   295.0000     4.2192     4.187
    324     1.9147     1.9151     1.9150      5.518      8.000  22200.000      6.000    41.2537    -9.2234  -114.2440    -0.0975     1.9545     1.0050    -3.9990    20.6267    41.2566     4.4645    14.6405    14.6385     0.0020   295.0000     4.2224     4.174
    325     1.9198     1.9201     1.9200      5.510      3.000  22200.000      6.000    41.2537    -9.4557  -114.7095    -0.0975     1.9545     1.0050    -3.9990    20.6267    41.2566     4.4762    14.6405    14.6385     0.0020   295.0000     4.2239     4.176
    326     1.9247     1.9251     1.9251      5.511      2.000  22200.000      6.000    41.2537    -9.6909  -115.1761    -0.0975     1.9545     1.0050    -3.9990    20.6267    41.2566     4.4879    14.6405    14.6385     0.0020   295.0000     4.2242     4.160
    327     1.9297     1.9301     1.9300      5.520      0.000  22200.000      6.000    41.2537    -9.9232  -115.6446    -0.0975     1.9545     1.0050    -3.9990    20.6267    41.2566     4.4995    14.6405    14.6385     0.0020   295.0000     4.2242     4.160
    328     1.9348     1.9352     1.9350      5.559      2.000  22200.000      6.000    41.2537   -10.1594  -116.1209    -0.0975     1.9545     1.0050    -3.9990    20.6267    41.2566     4.5112    14.6405    14.6385     0.0020   295.0000     4.2301     4.176
    329     1.9399     1.9403     1.9400      5.548      5.000  22200.000      6.000    41.2537   -10.3996  -116.6022    -0.0975     1.9545     1.0050    -3.9990    20.6267    41.2566     4.5230    14.6405    14.6385     0.0020   295.0000     4.2214     4.175
    330     1.9448     1.9452     1.9450      5.577      4.000  22200.000      6.000    41.2537   -10.6398  -117.0786    -0.0975     1.9545     1.0050    -3.9990    20.6267    41.2566     4.5345    14.6405    14.6385     0.0020   295.0000     4.2225     4.174
    331     1.9498     1.9502     1.9500      5.528      1.000  22200.000      6.000    41.2537   -10.8809  -117.5619    -0.0975     1.9545     1.0050    -3.9990    20.6267    41.2566     4.5462    14.6405    14.6385     0.0020   295.0000     4.2167     4.164
    332     1.9548     1.9552     1.9550      5.556      2.000  22200.000      6.000    41.2537   -11.1240  -118.0471    -0.0975     1.9545     1.0050    -3.9990    20.6267    41.2566     4.5578    14.6405    14.6385     0.0020   295.0000     4.2167     4.164
    333     1.9599     1.9603     1.9600      5.487      4.000  22200.000      6.000    41.2537   -11.3681  -118.5402    -0.0975     1.9545     1.0050    -3.9990    20.6267    41.2566     4.5696    14.6405    14.6385     0.0020   295.0000     4.2182     4.173
    334     1.9648     1.9652     1.9650      5.567      2.000  22200.000      6.000    41.2537   -11.6152  -119.0304    -0.0975     1.9545     1.0050    -3.9990    20.6267    41.2566     4.5811    14.6405    14.6385     0.0020   295.0000     4.2155     4.172
    335     1.9698     1.9702     1.9700      5.560      2.000  22200.000      6.000    41.2537   -11.8642  -119.5284    -0.0975     1.9545     1.0050    -3.9990    20.6267    41.2566     4.5928    14.6405    14.6385     0.0020   295.0000     4.2140     4.188
    336     1.9748     1.9752     1.9750      5.577      3.000  22200.000      6.000    41.2537   -12.1142  -120.0284    -0.0975     1.9545     1.0050    -3.9990    20.6267    41.2566     4.6044    14.6405    14.6385     0.0020   295.0000     4.2206     4.181
    337     1.9798     1.9802     1.9800      5.540      6.000  22200.000      6.000    41.2537   -12.3661  -120.5343    -0.0975     1.9545     1.0050    -3.9990    20.6267    41.2566     4.6161    14.6405    14.6385     0.0020   295.0000     4.2206     4.181
    338     1.9849     1.9853     1.9850      5.478     47.000  22200.000      6.000    41.2537   -12.6211  -121.0471    -0.0975     1.9545     1.0050    -3.9990    20.6267    41.2566     4.6279    14.6405    14.6385     0.0020   295.0000     4.2273     4.179
    339     1.9899     1.9903     1.9899      5.536    107.000  22200.000      6.000    41.2537   -12.8760  -121.5570    -0.0975     1.9545     1.0050    -3.9990    20.6267    41.2566     4.6395    14.6405    14.6385     0.0020   295.0000     4.2231     4.161
    340     1.9949     1.9952     1.9950      5.517    175.000  22200.000      6.000    41.2537   -13.1348  -122.0727    -0.0975     1.9545     1.0050    -3.9990    20.6267    41.2566     4.6511    14.6405    14.6385     0.0020   295.0000     4.2180     4.183
    341     1.9997     2.0001     2.0001      5.590    211.000  22200.000      6.000    41.2537   -13.3976  -122.5924    -0.0975     1.9545     1.0050    -3.9990    20.6267    41.2566     4.6627    14.6405    14.6385     0.0020   295.0000     4.2232     4.186
    342     2.0047     2.0051     2.0051      5.561    205.000  22200.000      6.000    41.2537   -13.6604  -123.1180    -0.0975     1.9545     1.0050    -3.9990    20.6267    41.2566     4.6744    14.6405    14.6385     0.0020   295.0000     4.2170     4.171
    343     2.0099     2.0103     2.0100      5.598    167.000  22200.000      6.000    41.2537   -13.9242  -123.6515    -0.0975     1.9545     1.0050    -3.9990    20.6267    41.2566     4.6861    14.6405    14.6385     0.0020   295.0000     4.2170     4.171
    344     2.0148     2.0152     2.0150      5.590    118.000  22200.000      6.000    41.2537   -14.1909  -124.1820    -0.0975     1.9545     1.0050    -3.9990    20.6267    41.2566     4.6977    14.6405    14.6385     0.0020   295.0000     4.2274     4.180
    345     2.0198     2.0202     2.0200      5.577    102.000  22200.000      6.000    41.2537   -14.4606  -124.7223    -0.0975     1.9545     1.0050    -3.9990    20.6267    41.2566     4.7094    14.6405    14.6385     0.0020   295.0000     4.2210     4.173
    346     2.0248     2.0252     2.0250      5.610     18.000  22200.000      6.000    41.2537   -14.7323  -125.2646    -0.0975     1.9545     1.0050    -3.9990    20.6267    41.2566     4.7210    14.6405    14.6385     0.0020   295.0000     4.2201     4.171
    347     2.0298     2.0302     2.0300      5.553      2.000  22200.000      6.000    41.2537   -15.0069  -125.8158    -0.0975     1.9545     1.0050    -3.9990    20.6267    41.2566     4.7327    14.6405    14.6385     0.0020   295.0000     4.2193     4.181
    348     2.0348     2.0351     2.0350      5.607      2.000  22200.000      6.000    41.2537   -15.2844  -126.3680    -0.0975     1.9545     1.0050    -3.9990    20.6267    41.2566     4.7443    14.6405    14.6385     0.0020   295.0000     4.2193     4.181
    349     2.0397     2.0401     2.0401      5.623      0.000  22200.000      6.000    41.2537   -15.5669  -126.9300    -0.0975     1.9545     1.0050    -3.9990    20.6267    41.2566     4.7560    14.6405    14.6385     0.0020   295.0000     4.2157     4.177
    350     2.0448     2.0452     2.0450      5.536      2.000  22200.000      6.000    41.2537   -15.8465  -127.4950    -0.0975     1.9545     1.0050    -3.9990    20.6267    41.2566     4.7677    14.6405    14.6385     0.0020   295.0000     4.2228     4.176
    351     2.0499     2.0503     2.0499      5.512      2.000  22200.000      6.000    41.2537   -16.1299  -128.0648    -0.0975     1.9545     1.0050    -3.9990    20.6267    41.2566     4.7793    14.6405    14.6385     0.0020   295.0000     4.2220     4.171
    352     2.0549     2.0553     2.0550      5.557      0.000  22200.000      6.000    41.2537   -16.4213  -128.6475    -0.0975     1.9545     1.0050    -3.9990    20.6267    41.2566     4.7911    14.6405    14.6385     0.0020   295.0000     4.2212     4.173
    353     2.0597     2.0601     2.0600      5.633      2.000  22200.000      6.000    41.2537   -16.7126  -129.2233    -0.0975     1.9545     1.0050    -3.9990    20.6267    41.2566     4.8026    14.6405    14.6385     0.0020   295.0000     4.2260     4.176
    354     2.0648     2.0651     2.0650      5.544      5.000  22200.000      6.000    41.2537   -17.0069  -129.8129    -0.0975     1.9545     1.0050    -3.9990    20.6267    41.2566     4.8143    14.6405    14.6385     0.0020   295.0000     4.2260     4.176
    355     2.0699     2.0703     2.0699      5.602      5.000  22200.000      6.000    41.2537   -17.3031  -130.4113    -0.0975     1.9545     1.0050    -3.9990    20.6267    41.2566     4.8260    14.6405    14.6385     0.0020   295.0000     4.2188     4.177
    356     2.0748     2.0752     2.0750      5.547      5.000  22200.000      6.000    41.2537   -17.6073  -131.0166    -0.0975     1.9545     1.0050    -3.9990    20.6267    41.2566     4.8377    14.6405    14.6385     0.0020   295.0000     4.2217     4.171
    357     2.0798     2.0802     2.0800      5.568      4.000  22200.000      6.000    41.2537   -17.9114  -131.6219    -0.0975     1.9545     1.0050    -3.9990    20.6267    41.2566     4.8492    14.6405    14.6385     0.0020   295.0000     4.2206     4.172
# Sum of Counts = 24624
# Center of Mass = 0.839300+/-0.008019
# Full Width Half-Maximum = 0.836115+/-0.006904
# 9:33:52 AM  11/11/2003   scan completed.
