# scan = 338
# date = 11/11/2003
# time = 9:33:53 AM
# experiment = TbPtIn single crystal;  100 plane
# experiment_number = 41
# command = scan h 0.3 2.07 .005 k 0.3 2.07 .005 l 0 preset 6
# builtin_command = scan h 0.3 2.07 .005 k 0.3 2.07 .005 l 0 preset 6
# users = O.Garlea, C.Stassis, J.L.Zarestky
# local_contact = J.L.Zarestky
# scan_title = hh0 scan, base temp, H = 3 T
# monochromator = PG002
# analyzer = Pg002
# sense = +-+
# collimation = 48-40-40-102
# samplename = TbPtIn
# sampletype = crystal
# samplemosaic = 30.000000
# latticeconstants = 7.554053,7.554053,3.846679,90.000000,90.000000,120.000000
# ubmatrix = -0.005362,-0.005623,0.259740,-0.129577,-0.134798,-0.010795,0.080912,-0.071857,-0.000073
# mode = 0
# plane_normal = 0.001702,0.034158,0.999415
# ubconf = C:\User\exp41\UBConf\UB10Nov2003_64050PM.ini
# preset_type = normal 
# preset_channel = mcu
# preset_value = 6.000000
# def_x = h
# def_y = detector
# col_headers = 
#   Pt.          h          k          l       time   detector    monitor        mcu         m2         s1         s2        sgl        sgu        stl        stu         a1         a2          q         ei         ef          e       temp    coldtip    tsample
      1     0.3000     0.3001     0.0000      5.555     25.000  22200.000      6.000    41.2537    86.9715   -10.7755    -0.0975     1.9545     1.0050    -3.9990    20.6267    41.2566     0.4991    14.6405    14.6385     0.0020   295.0000     4.2214     4.172
      2     0.3049     0.3049     0.0000      5.593     30.000  22200.000      6.000    41.2537    86.8819   -10.9497    -0.0975     1.9545     1.0050    -3.9990    20.6267    41.2566     0.5072    14.6405    14.6385     0.0020   295.0000     4.2218     4.174
      3     0.3100     0.3101     0.0000      5.514     35.000  22200.000      6.000    41.2537    86.7923   -11.1347    -0.0975     1.9545     1.0050    -3.9990    20.6267    41.2566     0.5157    14.6405    14.6385     0.0020   295.0000     4.2218     4.174
      4     0.3149     0.3150     0.0000      5.517     32.000  22200.000      6.000    41.2537    86.7028   -11.3129    -0.0975     1.9545     1.0050    -3.9990    20.6267    41.2566     0.5240    14.6405    14.6385     0.0020   295.0000     4.2218     4.174
      5     0.3199     0.3200     0.0000      5.493     20.000  22200.000      6.000    41.2537    86.6112   -11.4930    -0.0975     1.9545     1.0050    -3.9990    20.6267    41.2566     0.5323    14.6405    14.6385     0.0020   295.0000     4.2205     4.181
      6     0.3250     0.3250     0.0000      5.541     36.000  22200.000      6.000    41.2537    86.5207   -11.6751    -0.0975     1.9545     1.0050    -3.9990    20.6267    41.2566     0.5407    14.6405    14.6385     0.0020   295.0000     4.2230     4.173
      7     0.3299     0.3300     0.0000      5.537     29.000  22200.000      6.000    41.2537    86.4321   -11.8532    -0.0975     1.9545     1.0050    -3.9990    20.6267    41.2566     0.5489    14.6405    14.6385     0.0020   295.0000     4.2204     4.175
      8     0.3350     0.3350     0.0000      5.578     19.000  22200.000      6.000    41.2537    86.3415   -12.0343    -0.0975     1.9545     1.0050    -3.9990    20.6267    41.2566     0.5573    14.6405    14.6385     0.0020   295.0000     4.2204     4.175
      9     0.3400     0.3400    -0.0000      5.568     28.000  22200.000      6.000    41.2537    86.2539   -12.2154    -0.0975     1.9545     1.0050    -3.9990    20.6267    41.2566     0.5656    14.6405    14.6385     0.0020   295.0000     4.2212     4.169
     10     0.3449     0.3450     0.0000      5.595     21.000  22200.000      6.000    41.2537    86.1634   -12.3946    -0.0975     1.9545     1.0050    -3.9990    20.6267    41.2566     0.5739    14.6405    14.6385     0.0020   295.0000     4.2244     4.176
     11     0.3500     0.3501    -0.0000      5.573     25.000  22200.000      6.000    41.2537    86.0738   -12.5767    -0.0975     1.9545     1.0050    -3.9990    20.6267    41.2566     0.5823    14.6405    14.6385     0.0020   295.0000     4.2218     4.175
     12     0.3550     0.3550     0.0000      5.557     23.000  22200.000      6.000    41.2537    85.9823   -12.7568    -0.0975     1.9545     1.0050    -3.9990    20.6267    41.2566     0.5906    14.6405    14.6385     0.0020   295.0000     4.2218     4.175
     13     0.3599     0.3600     0.0000      5.506     27.000  22200.000      6.000    41.2537    85.8937   -12.9349    -0.0975     1.9545     1.0050    -3.9990    20.6267    41.2566     0.5988    14.6405    14.6385     0.0020   295.0000     4.2244     4.175
     14     0.3649     0.3650     0.0000      5.566     34.000  22200.000      6.000    41.2537    85.8031   -13.1160    -0.0975     1.9545     1.0050    -3.9990    20.6267    41.2566     0.6071    14.6405    14.6385     0.0020   295.0000     4.2209     4.172
     15     0.3700     0.3700     0.0000      5.551     19.000  22200.000      6.000    41.2537    85.7126   -13.2981    -0.0975     1.9545     1.0050    -3.9990    20.6267    41.2566     0.6155    14.6405    14.6385     0.0020   295.0000     4.2224     4.173
     16     0.3749     0.3750     0.0000      5.583     19.000  22200.000      6.000    41.2537    85.6220   -13.4772    -0.0975     1.9545     1.0050    -3.9990    20.6267    41.2566     0.6238    14.6405    14.6385     0.0020   295.0000     4.2224     4.173
     17     0.3800     0.3801     0.0000      5.534     25.000  22200.000      6.000    41.2537    85.5315   -13.6603    -0.0975     1.9545     1.0050    -3.9990    20.6267    41.2566     0.6322    14.6405    14.6385     0.0020   295.0000     4.2300     4.164
     18     0.3849     0.3850     0.0000      5.559     21.000  22200.000      6.000    41.2537    85.4419   -13.8385    -0.0975     1.9545     1.0050    -3.9990    20.6267    41.2566     0.6404    14.6405    14.6385     0.0020   295.0000     4.2207     4.175
     19     0.3900     0.3900     0.0000      5.559     18.000  22200.000      6.000    41.2537    85.3524   -14.0196    -0.0975     1.9545     1.0050    -3.9990    20.6267    41.2566     0.6488    14.6405    14.6385     0.0020   295.0000     4.2211     4.174
     20     0.3950     0.3950     0.0000      5.559     18.000  22200.000      6.000    41.2537    85.2608   -14.2007    -0.0975     1.9545     1.0050    -3.9990    20.6267    41.2566     0.6571    14.6405    14.6385     0.0020   295.0000     4.2211     4.174
     21     0.3999     0.4000     0.0000      5.609     15.000  22200.000      6.000    41.2537    85.1732   -14.3798    -0.0975     1.9545     1.0050    -3.9990    20.6267    41.2566     0.6653    14.6405    14.6385     0.0020   295.0000     4.2204     4.174
     22     0.4049     0.4050     0.0000      5.485     20.000  22200.000      6.000    41.2537    85.0817   -14.5609    -0.0975     1.9545     1.0050    -3.9990    20.6267    41.2566     0.6737    14.6405    14.6385     0.0020   295.0000     4.2227     4.171
     23     0.4100     0.4101    -0.0000      5.561     25.000  22200.000      6.000    41.2537    84.9931   -14.7450    -0.0975     1.9545     1.0050    -3.9990    20.6267    41.2566     0.6821    14.6405    14.6385     0.0020   295.0000     4.2190     4.173
     24     0.4149     0.4150     0.0000      5.554     13.000  22200.000      6.000    41.2537    84.9016   -14.9221    -0.0975     1.9545     1.0050    -3.9990    20.6267    41.2566     0.6903    14.6405    14.6385     0.0020   295.0000     4.2190     4.173
     25     0.4200     0.4200     0.0000      5.553     20.000  22200.000      6.000    41.2537    84.8120   -15.1042    -0.0975     1.9545     1.0050    -3.9990    20.6267    41.2566     0.6987    14.6405    14.6385     0.0020   295.0000     4.2238     4.169
     26     0.4250     0.4250    -0.0000      5.566     16.000  22200.000      6.000    41.2537    84.7224   -15.2853    -0.0975     1.9545     1.0050    -3.9990    20.6267    41.2566     0.7070    14.6405    14.6385     0.0020   295.0000     4.2225     4.174
     27     0.4299     0.4300     0.0000      5.509     19.000  22200.000      6.000    41.2537    84.6309   -15.4654    -0.0975     1.9545     1.0050    -3.9990    20.6267    41.2566     0.7153    14.6405    14.6385     0.0020   295.0000     4.2206     4.173
     28     0.4350     0.4350     0.0000      5.544     14.000  22200.000      6.000    41.2537    84.5413   -15.6475    -0.0975     1.9545     1.0050    -3.9990    20.6267    41.2566     0.7236    14.6405    14.6385     0.0020   295.0000     4.2206     4.173
     29     0.4399     0.4400     0.0000      5.628     20.000  22200.000      6.000    41.2537    84.4498   -15.8276    -0.0975     1.9545     1.0050    -3.9990    20.6267    41.2566     0.7319    14.6405    14.6385     0.0020   295.0000     4.2271     4.184
     30     0.4449     0.4450     0.0000      5.539     18.000  22200.000      6.000    41.2537    84.3602   -16.0087    -0.0975     1.9545     1.0050    -3.9990    20.6267    41.2566     0.7402    14.6405    14.6385     0.0020   295.0000     4.2222     4.172
     31     0.4500     0.4501     0.0000      5.605     16.000  22200.000      6.000    41.2537    84.2687   -16.1928    -0.0975     1.9545     1.0050    -3.9990    20.6267    41.2566     0.7487    14.6405    14.6385     0.0020   295.0000     4.2239     4.174
     32     0.4549     0.4550     0.0000      5.543     17.000  22200.000      6.000    41.2537    84.1801   -16.3709    -0.0975     1.9545     1.0050    -3.9990    20.6267    41.2566     0.7569    14.6405    14.6385     0.0020   295.0000     4.2239     4.174
     33     0.4599     0.4600     0.0000      5.580     13.000  22200.000      6.000    41.2537    84.0876   -16.5520    -0.0975     1.9545     1.0050    -3.9990    20.6267    41.2566     0.7652    14.6405    14.6385     0.0020   295.0000     4.2186     4.168
     34     0.4650     0.4651     0.0000      5.578     18.000  22200.000      6.000    41.2537    83.9980   -16.7341    -0.0975     1.9545     1.0050    -3.9990    20.6267    41.2566     0.7736    14.6405    14.6385     0.0020   295.0000     4.2199     4.176
     35     0.4699     0.4700     0.0000      5.580     19.000  22200.000      6.000    41.2537    83.9075   -16.9143    -0.0975     1.9545     1.0050    -3.9990    20.6267    41.2566     0.7818    14.6405    14.6385     0.0020   295.0000     4.2204     4.172
     36     0.4749     0.4750     0.0000      5.546     19.000  22200.000      6.000    41.2537    83.8179   -17.0954    -0.0975     1.9545     1.0050    -3.9990    20.6267    41.2566     0.7901    14.6405    14.6385     0.0020   295.0000     4.2204     4.172
     37     0.4799     0.4800     0.0000      5.582     18.000  22200.000      6.000    41.2537    83.7264   -17.2774    -0.0975     1.9545     1.0050    -3.9990    20.6267    41.2566     0.7985    14.6405    14.6385     0.0020   295.0000     4.2261     4.171
     38     0.4849     0.4850     0.0000      5.538     11.000  22200.000      6.000    41.2537    83.6358   -17.4585    -0.0975     1.9545     1.0050    -3.9990    20.6267    41.2566     0.8068    14.6405    14.6385     0.0020   295.0000     4.2218     4.176
     39     0.4900     0.4900     0.0000      5.572     22.000  22200.000      6.000    41.2537    83.5443   -17.6406    -0.0975     1.9545     1.0050    -3.9990    20.6267    41.2566     0.8151    14.6405    14.6385     0.0020   295.0000     4.2183     4.172
     40     0.4949     0.4950     0.0000      5.562     19.000  22200.000      6.000    41.2537    83.4557   -17.8217    -0.0975     1.9545     1.0050    -3.9990    20.6267    41.2566     0.8234    14.6405    14.6385     0.0020   295.0000     4.2183     4.172
     41     0.4999     0.5000     0.0000      5.628     18.000  22200.000      6.000    41.2537    83.3642   -18.0019    -0.0975     1.9545     1.0050    -3.9990    20.6267    41.2566     0.8317    14.6405    14.6385     0.0020   295.0000     4.2154     4.174
     42     0.5050     0.5051    -0.0000      5.569     16.000  22200.000      6.000    41.2537    83.2746   -18.1859    -0.0975     1.9545     1.0050    -3.9990    20.6267    41.2566     0.8401    14.6405    14.6385     0.0020   295.0000     4.2187     4.175
     43     0.5099     0.5100     0.0000      5.571     16.000  22200.000      6.000    41.2537    83.1831   -18.3660    -0.0975     1.9545     1.0050    -3.9990    20.6267    41.2566     0.8484    14.6405    14.6385     0.0020   295.0000     4.2213     4.174
     44     0.5150     0.5151     0.0000      5.543     19.000  22200.000      6.000    41.2537    83.0925   -18.5491    -0.0975     1.9545     1.0050    -3.9990    20.6267    41.2566     0.8568    14.6405    14.6385     0.0020   295.0000     4.2161     4.170
     45     0.5200     0.5201     0.0000      5.553     17.000  22200.000      6.000    41.2537    83.0020   -18.7302    -0.0975     1.9545     1.0050    -3.9990    20.6267    41.2566     0.8650    14.6405    14.6385     0.0020   295.0000     4.2161     4.170
     46     0.5249     0.5250     0.0000      5.579     18.000  22200.000      6.000    41.2537    82.9114   -18.9103    -0.0975     1.9545     1.0050    -3.9990    20.6267    41.2566     0.8733    14.6405    14.6385     0.0020   295.0000     4.2192     4.174
     47     0.5299     0.5300     0.0000      5.569     15.000  22200.000      6.000    41.2537    82.8199   -19.0924    -0.0975     1.9545     1.0050    -3.9990    20.6267    41.2566     0.8816    14.6405    14.6385     0.0020   295.0000     4.2220     4.176
     48     0.5350     0.5351     0.0000      5.548     17.000  22200.000      6.000    41.2537    82.7293   -19.2765    -0.0975     1.9545     1.0050    -3.9990    20.6267    41.2566     0.8900    14.6405    14.6385     0.0020   295.0000     4.2199     4.168
     49     0.5400     0.5401     0.0000      5.502     12.000  22200.000      6.000    41.2537    82.6378   -19.4576    -0.0975     1.9545     1.0050    -3.9990    20.6267    41.2566     0.8983    14.6405    14.6385     0.0020   295.0000     4.2199     4.168
     50     0.5449     0.5450     0.0000      5.593     16.000  22200.000      6.000    41.2537    82.5463   -19.6387    -0.0975     1.9545     1.0050    -3.9990    20.6267    41.2566     0.9066    14.6405    14.6385     0.0020   295.0000     4.2198     4.175
     51     0.5500     0.5501     0.0000      5.560     13.000  22200.000      6.000    41.2537    82.4567   -19.8217    -0.0975     1.9545     1.0050    -3.9990    20.6267    41.2566     0.9150    14.6405    14.6385     0.0020   295.0000     4.2224     4.170
     52     0.5549     0.5550     0.0000      5.520     12.000  22200.000      6.000    41.2537    82.3661   -20.0028    -0.0975     1.9545     1.0050    -3.9990    20.6267    41.2566     0.9232    14.6405    14.6385     0.0020   295.0000     4.2187     4.159
     53     0.5600     0.5601     0.0000      5.525     13.000  22200.000      6.000    41.2537    82.2736   -20.1859    -0.0975     1.9545     1.0050    -3.9990    20.6267    41.2566     0.9316    14.6405    14.6385     0.0020   295.0000     4.2187     4.159
     54     0.5649     0.5650     0.0000      5.564     14.000  22200.000      6.000    41.2537    82.1841   -20.3670    -0.0975     1.9545     1.0050    -3.9990    20.6267    41.2566     0.9399    14.6405    14.6385     0.0020   295.0000     4.2237     4.170
     55     0.5699     0.5700     0.0000      5.608     21.000  22200.000      6.000    41.2537    82.0925   -20.5491    -0.0975     1.9545     1.0050    -3.9990    20.6267    41.2566     0.9482    14.6405    14.6385     0.0020   295.0000     4.2248     4.171
     56     0.5750     0.5751    -0.0000      5.544     11.000  22200.000      6.000    41.2537    82.0020   -20.7332    -0.0975     1.9545     1.0050    -3.9990    20.6267    41.2566     0.9566    14.6405    14.6385     0.0020   295.0000     4.2171     4.163
     57     0.5799     0.5800     0.0000      5.513     15.000  22200.000      6.000    41.2537    81.9104   -20.9133    -0.0975     1.9545     1.0050    -3.9990    20.6267    41.2566     0.9648    14.6405    14.6385     0.0020   295.0000     4.2171     4.163
     58     0.5849     0.5850    -0.0000      5.522     12.000  22200.000      6.000    41.2537    81.8209   -21.0954    -0.0975     1.9545     1.0050    -3.9990    20.6267    41.2566     0.9731    14.6405    14.6385     0.0020   295.0000     4.2206     4.171
     59     0.5900     0.5901    -0.0000      5.582     15.000  22200.000      6.000    41.2537    81.7293   -21.2794    -0.0975     1.9545     1.0050    -3.9990    20.6267    41.2566     0.9815    14.6405    14.6385     0.0020   295.0000     4.2223     4.173
     60     0.5950     0.5951     0.0000      5.528     15.000  22200.000      6.000    41.2537    81.6378   -21.4615    -0.0975     1.9545     1.0050    -3.9990    20.6267    41.2566     0.9898    14.6405    14.6385     0.0020   295.0000     4.2223     4.173
     61     0.6000     0.6001     0.0000      5.550     10.000  22200.000      6.000    41.2537    81.5463   -21.6446    -0.0975     1.9545     1.0050    -3.9990    20.6267    41.2566     0.9981    14.6405    14.6385     0.0020   295.0000     4.2316     4.170
     62     0.6049     0.6050    -0.0000      5.605     10.000  22200.000      6.000    41.2537    81.4567   -21.8257    -0.0975     1.9545     1.0050    -3.9990    20.6267    41.2566     1.0064    14.6405    14.6385     0.0020   295.0000     4.2246     4.172
     63     0.6099     0.6100     0.0000      5.494      6.000  22200.000      6.000    41.2537    81.3632   -22.0078    -0.0975     1.9545     1.0050    -3.9990    20.6267    41.2566     1.0147    14.6405    14.6385     0.0020   295.0000     4.2228     4.172
     64     0.6150     0.6151    -0.0000      5.530     11.000  22200.000      6.000    41.2537    81.2726   -22.1928    -0.0975     1.9545     1.0050    -3.9990    20.6267    41.2566     1.0231    14.6405    14.6385     0.0020   295.0000     4.2228     4.172
     65     0.6199     0.6200    -0.0000      5.528     11.000  22200.000      6.000    41.2537    81.1831   -22.3739    -0.0975     1.9545     1.0050    -3.9990    20.6267    41.2566     1.0314    14.6405    14.6385     0.0020   295.0000     4.2188     4.178
     66     0.6249     0.6250     0.0000      5.528     18.000  22200.000      6.000    41.2537    81.0886   -22.5570    -0.0975     1.9545     1.0050    -3.9990    20.6267    41.2566     1.0397    14.6405    14.6385     0.0020   295.0000     4.2246     4.174
     67     0.6299     0.6301     0.0000      5.563     11.000  22200.000      6.000    41.2537    80.9980   -22.7400    -0.0975     1.9545     1.0050    -3.9990    20.6267    41.2566     1.0480    14.6405    14.6385     0.0020   295.0000     4.2174     4.171
     68     0.6349     0.6351     0.0000      5.535     11.000  22200.000      6.000    41.2537    80.9075   -22.9231    -0.0975     1.9545     1.0050    -3.9990    20.6267    41.2566     1.0563    14.6405    14.6385     0.0020   295.0000     4.2174     4.171
     69     0.6399     0.6400    -0.0000      5.491     12.000  22200.000      6.000    41.2537    80.8169   -23.1052    -0.0975     1.9545     1.0050    -3.9990    20.6267    41.2566     1.0646    14.6405    14.6385     0.0020   295.0000     4.2265     4.167
     70     0.6449     0.6451     0.0000      5.498      7.000  22200.000      6.000    41.2537    80.7234   -23.2893    -0.0975     1.9545     1.0050    -3.9990    20.6267    41.2566     1.0730    14.6405    14.6385     0.0020   295.0000     4.2243     4.171
     71     0.6499     0.6501     0.0000      5.585     12.000  22200.000      6.000    41.2537    80.6329   -23.4723    -0.0975     1.9545     1.0050    -3.9990    20.6267    41.2566     1.0813    14.6405    14.6385     0.0020   295.0000     4.2236     4.173
     72     0.6551     0.6552    -0.0000      5.548     12.000  22200.000      6.000    41.2537    80.5413   -23.6593    -0.0975     1.9545     1.0050    -3.9990    20.6267    41.2566     1.0898    14.6405    14.6385     0.0020   295.0000     4.2236     4.173
     73     0.6599     0.6601     0.0000      5.574     11.000  22200.000      6.000    41.2537    80.4498   -23.8385    -0.0975     1.9545     1.0050    -3.9990    20.6267    41.2566     1.0979    14.6405    14.6385     0.0020   295.0000     4.2222     4.165
     74     0.6649     0.6650     0.0000      5.537      6.000  22200.000      6.000    41.2537    80.3583   -24.0206    -0.0975     1.9545     1.0050    -3.9990    20.6267    41.2566     1.1062    14.6405    14.6385     0.0020   295.0000     4.2248     4.173
     75     0.6700     0.6701     0.0000      5.566      6.000  22200.000      6.000    41.2537    80.2657   -24.2066    -0.0975     1.9545     1.0050    -3.9990    20.6267    41.2566     1.1146    14.6405    14.6385     0.0020   295.0000     4.2249     4.174
     76     0.6749     0.6750    -0.0000      5.512      5.000  22200.000      6.000    41.2537    80.1762   -24.3877    -0.0975     1.9545     1.0050    -3.9990    20.6267    41.2566     1.1228    14.6405    14.6385     0.0020   295.0000     4.2249     4.174
     77     0.6800     0.6801    -0.0000      5.566     11.000  22200.000      6.000    41.2537    80.0837   -24.5727    -0.0975     1.9545     1.0050    -3.9990    20.6267    41.2566     1.1312    14.6405    14.6385     0.0020   295.0000     4.2239     4.163
     78     0.6849     0.6850    -0.0000      5.559      8.000  22200.000      6.000    41.2537    79.9931   -24.7548    -0.0975     1.9545     1.0050    -3.9990    20.6267    41.2566     1.1395    14.6405    14.6385     0.0020   295.0000     4.2248     4.171
     79     0.6899     0.6900    -0.0000      5.537      9.000  22200.000      6.000    41.2537    79.9016   -24.9379    -0.0975     1.9545     1.0050    -3.9990    20.6267    41.2566     1.1478    14.6405    14.6385     0.0020   295.0000     4.2202     4.173
     80     0.6949     0.6951     0.0000      5.529     14.000  22200.000      6.000    41.2537    79.8081   -25.1229    -0.0975     1.9545     1.0050    -3.9990    20.6267    41.2566     1.1562    14.6405    14.6385     0.0020   295.0000     4.2202     4.173
     81     0.7000     0.7001    -0.0000      5.514     15.000  22200.000      6.000    41.2537    79.7175   -25.3070    -0.0975     1.9545     1.0050    -3.9990    20.6267    41.2566     1.1645    14.6405    14.6385     0.0020   295.0000     4.2299     4.163
     82     0.7049     0.7051     0.0000      5.500     11.000  22200.000      6.000    41.2537    79.6240   -25.4900    -0.0975     1.9545     1.0050    -3.9990    20.6267    41.2566     1.1728    14.6405    14.6385     0.0020   295.0000     4.2190     4.176
     83     0.7100     0.7101     0.0000      5.544     14.000  22200.000      6.000    41.2537    79.5325   -25.6751    -0.0975     1.9545     1.0050    -3.9990    20.6267    41.2566     1.1811    14.6405    14.6385     0.0020   295.0000     4.2201     4.173
     84     0.7149     0.7150     0.0000      5.587     14.000  22200.000      6.000    41.2537    79.4409   -25.8572    -0.0975     1.9545     1.0050    -3.9990    20.6267    41.2566     1.1894    14.6405    14.6385     0.0020   295.0000     4.2201     4.173
     85     0.7199     0.7200     0.0000      5.607     10.000  22200.000      6.000    41.2537    79.3484   -26.0412    -0.0975     1.9545     1.0050    -3.9990    20.6267    41.2566     1.1977    14.6405    14.6385     0.0020   295.0000     4.2222     4.174
     86     0.7249     0.7251     0.0000      5.546     15.000  22200.000      6.000    41.2537    79.2569   -26.2263    -0.0975     1.9545     1.0050    -3.9990    20.6267    41.2566     1.2061    14.6405    14.6385     0.0020   295.0000     4.2219     4.170
     87     0.7299     0.7300     0.0000      5.566     10.000  22200.000      6.000    41.2537    79.1654   -26.4093    -0.0975     1.9545     1.0050    -3.9990    20.6267    41.2566     1.2143    14.6405    14.6385     0.0020   295.0000     4.2209     4.173
     88     0.7349     0.7350     0.0000      5.549     10.000  22200.000      6.000    41.2537    79.0738   -26.5934    -0.0975     1.9545     1.0050    -3.9990    20.6267    41.2566     1.2226    14.6405    14.6385     0.0020   295.0000     4.2209     4.173
     89     0.7400     0.7401    -0.0000      5.564     11.000  22200.000      6.000    41.2537    78.9813   -26.7804    -0.0975     1.9545     1.0050    -3.9990    20.6267    41.2566     1.2311    14.6405    14.6385     0.0020   295.0000     4.2259     4.179
     90     0.7449     0.7450     0.0000      5.534     14.000  22200.000      6.000    41.2537    78.8878   -26.9615    -0.0975     1.9545     1.0050    -3.9990    20.6267    41.2566     1.2393    14.6405    14.6385     0.0020   295.0000     4.2212     4.172
     91     0.7500     0.7501    -0.0000      5.485     10.000  22200.000      6.000    41.2537    78.7972   -27.1485    -0.0975     1.9545     1.0050    -3.9990    20.6267    41.2566     1.2477    14.6405    14.6385     0.0020   295.0000     4.2254     4.171
     92     0.7549     0.7551     0.0000      5.572     13.000  22200.000      6.000    41.2537    78.7037   -27.3316    -0.0975     1.9545     1.0050    -3.9990    20.6267    41.2566     1.2559    14.6405    14.6385     0.0020   295.0000     4.2254     4.171
     93     0.7599     0.7600     0.0000      5.541     13.000  22200.000      6.000    41.2537    78.6122   -27.5156    -0.0975     1.9545     1.0050    -3.9990    20.6267    41.2566     1.2642    14.6405    14.6385     0.0020   295.0000     4.2260     4.183
     94     0.7649     0.7651     0.0000      5.533     12.000  22200.000      6.000    41.2537    78.5197   -27.7017    -0.0975     1.9545     1.0050    -3.9990    20.6267    41.2566     1.2726    14.6405    14.6385     0.0020   295.0000     4.2243     4.175
     95     0.7699     0.7700     0.0000      5.604     12.000  22200.000      6.000    41.2537    78.4272   -27.8847    -0.0975     1.9545     1.0050    -3.9990    20.6267    41.2566     1.2809    14.6405    14.6385     0.0020   295.0000     4.2226     4.170
     96     0.7749     0.7750     0.0000      5.575     15.000  22200.000      6.000    41.2537    78.3346   -28.0698    -0.0975     1.9545     1.0050    -3.9990    20.6267    41.2566     1.2892    14.6405    14.6385     0.0020   295.0000     4.2226     4.170
     97     0.7799     0.7801     0.0000      5.515     19.000  22200.000      6.000    41.2537    78.2421   -28.2558    -0.0975     1.9545     1.0050    -3.9990    20.6267    41.2566     1.2976    14.6405    14.6385     0.0020   295.0000     4.2249     4.177
     98     0.7849     0.7851     0.0000      5.577     12.000  22200.000      6.000    41.2537    78.1506   -28.4398    -0.0975     1.9545     1.0050    -3.9990    20.6267    41.2566     1.3058    14.6405    14.6385     0.0020   295.0000     4.2230     4.172
     99     0.7899     0.7901    -0.0000      5.590      7.000  22200.000      6.000    41.2537    78.0591   -28.6259    -0.0975     1.9545     1.0050    -3.9990    20.6267    41.2566     1.3142    14.6405    14.6385     0.0020   295.0000     4.2244     4.174
    100     0.7949     0.7951     0.0000      5.546     12.000  22200.000      6.000    41.2537    77.9646   -28.8109    -0.0975     1.9545     1.0050    -3.9990    20.6267    41.2566     1.3225    14.6405    14.6385     0.0020   295.0000     4.2244     4.174
    101     0.7999     0.8000     0.0000      5.529     12.000  22200.000      6.000    41.2537    77.8730   -28.9940    -0.0975     1.9545     1.0050    -3.9990    20.6267    41.2566     1.3307    14.6405    14.6385     0.0020   295.0000     4.2233     4.183
    102     0.8050     0.8051    -0.0000      5.594     17.000  22200.000      6.000    41.2537    77.7805   -29.1820    -0.0975     1.9545     1.0050    -3.9990    20.6267    41.2566     1.3392    14.6405    14.6385     0.0020   295.0000     4.2239     4.171
    103     0.8099     0.8100     0.0000      5.595     17.000  22200.000      6.000    41.2537    77.6870   -29.3650    -0.0975     1.9545     1.0050    -3.9990    20.6267    41.2566     1.3474    14.6405    14.6385     0.0020   295.0000     4.2186     4.176
    104     0.8149     0.8151     0.0000      5.559     13.000  22200.000      6.000    41.2537    77.5945   -29.5511    -0.0975     1.9545     1.0050    -3.9990    20.6267    41.2566     1.3558    14.6405    14.6385     0.0020   295.0000     4.2186     4.176
    105     0.8200     0.8201     0.0000      5.536     13.000  22200.000      6.000    41.2537    77.5020   -29.7381    -0.0975     1.9545     1.0050    -3.9990    20.6267    41.2566     1.3641    14.6405    14.6385     0.0020   295.0000     4.2193     4.177
    106     0.8249     0.8250     0.0000      5.566     12.000  22200.000      6.000    41.2537    77.4094   -29.9211    -0.0975     1.9545     1.0050    -3.9990    20.6267    41.2566     1.3723    14.6405    14.6385     0.0020   295.0000     4.2219     4.173
    107     0.8299     0.8300     0.0000      5.533      8.000  22200.000      6.000    41.2537    77.3169   -30.1072    -0.0975     1.9545     1.0050    -3.9990    20.6267    41.2566     1.3807    14.6405    14.6385     0.0020   295.0000     4.2189     4.169
    108     0.8349     0.8351    -0.0000      5.500     16.000  22200.000      6.000    41.2537    77.2244   -30.2942    -0.0975     1.9545     1.0050    -3.9990    20.6267    41.2566     1.3891    14.6405    14.6385     0.0020   295.0000     4.2189     4.169
    109     0.8399     0.8401     0.0000      5.527     11.000  22200.000      6.000    41.2537    77.1319   -30.4792    -0.0975     1.9545     1.0050    -3.9990    20.6267    41.2566     1.3973    14.6405    14.6385     0.0020   295.0000     4.2266     4.161
    110     0.8450     0.8451    -0.0000      5.573     17.000  22200.000      6.000    41.2537    77.0394   -30.6672    -0.0975     1.9545     1.0050    -3.9990    20.6267    41.2566     1.4058    14.6405    14.6385     0.0020   295.0000     4.2222     4.168
    111     0.8499     0.8501     0.0000      5.658     13.000  22200.000      6.000    41.2537    76.9449   -30.8513    -0.0975     1.9545     1.0050    -3.9990    20.6267    41.2566     1.4140    14.6405    14.6385     0.0020   295.0000     4.2240     4.171
    112     0.8549     0.8551    -0.0000      5.480      9.000  22200.000      6.000    41.2537    76.8533   -31.0383    -0.0975     1.9545     1.0050    -3.9990    20.6267    41.2566     1.4223    14.6405    14.6385     0.0020   295.0000     4.2240     4.171
    113     0.8600     0.8601    -0.0000      5.551     13.000  22200.000      6.000    41.2537    76.7598   -31.2263    -0.0975     1.9545     1.0050    -3.9990    20.6267    41.2566     1.4308    14.6405    14.6385     0.0020   295.0000     4.2318     4.168
    114     0.8649     0.8651     0.0000      5.532     17.000  22200.000      6.000    41.2537    76.6663   -31.4093    -0.0975     1.9545     1.0050    -3.9990    20.6267    41.2566     1.4389    14.6405    14.6385     0.0020   295.0000     4.2234     4.172
    115     0.8699     0.8701     0.0000      5.523     14.000  22200.000      6.000    41.2537    76.5728   -31.5954    -0.0975     1.9545     1.0050    -3.9990    20.6267    41.2566     1.4472    14.6405    14.6385     0.0020   295.0000     4.2226     4.171
    116     0.8749     0.8751     0.0000      5.581     20.000  22200.000      6.000    41.2537    76.4803   -31.7824    -0.0975     1.9545     1.0050    -3.9990    20.6267    41.2566     1.4556    14.6405    14.6385     0.0020   295.0000     4.2226     4.171
    117     0.8799     0.8801     0.0000      5.545     19.000  22200.000      6.000    41.2537    76.3858   -31.9694    -0.0975     1.9545     1.0050    -3.9990    20.6267    41.2566     1.4639    14.6405    14.6385     0.0020   295.0000     4.2298     4.171
    118     0.8849     0.8851    -0.0000      5.552     10.000  22200.000      6.000    41.2537    76.2943   -32.1554    -0.0975     1.9545     1.0050    -3.9990    20.6267    41.2566     1.4722    14.6405    14.6385     0.0020   295.0000     4.2230     4.173
    119     0.8899     0.8901     0.0000      5.604     11.000  22200.000      6.000    41.2537    76.1998   -32.3414    -0.0975     1.9545     1.0050    -3.9990    20.6267    41.2566     1.4805    14.6405    14.6385     0.0020   295.0000     4.2196     4.169
    120     0.8949     0.8951     0.0000      5.541     17.000  22200.000      6.000    41.2537    76.1063   -32.5284    -0.0975     1.9545     1.0050    -3.9990    20.6267    41.2566     1.4888    14.6405    14.6385     0.0020   295.0000     4.2196     4.169
    121     0.8999     0.9001    -0.0000      5.622     23.000  22200.000      6.000    41.2537    76.0148   -32.7164    -0.0975     1.9545     1.0050    -3.9990    20.6267    41.2566     1.4972    14.6405    14.6385     0.0020   295.0000     4.2168     4.172
    122     0.9049     0.9051     0.0000      5.563     13.000  22200.000      6.000    41.2537    75.9203   -32.9015    -0.0975     1.9545     1.0050    -3.9990    20.6267    41.2566     1.5054    14.6405    14.6385     0.0020   295.0000     4.2188     4.172
    123     0.9099     0.9101     0.0000      5.559     22.000  22200.000      6.000    41.2537    75.8268   -33.0895    -0.0975     1.9545     1.0050    -3.9990    20.6267    41.2566     1.5138    14.6405    14.6385     0.0020   295.0000     4.2202     4.172
    124     0.9149     0.9151    -0.0000      5.570     13.000  22200.000      6.000    41.2537    75.7343   -33.2765    -0.0975     1.9545     1.0050    -3.9990    20.6267    41.2566     1.5221    14.6405    14.6385     0.0020   295.0000     4.2202     4.172
    125     0.9199     0.9201    -0.0000      5.592     18.000  22200.000      6.000    41.2537    75.6407   -33.4635    -0.0975     1.9545     1.0050    -3.9990    20.6267    41.2566     1.5304    14.6405    14.6385     0.0020   295.0000     4.2263     4.182
    126     0.9250     0.9251    -0.0000      5.566     18.000  22200.000      6.000    41.2537    75.5463   -33.6534    -0.0975     1.9545     1.0050    -3.9990    20.6267    41.2566     1.5389    14.6405    14.6385     0.0020   295.0000     4.2207     4.176
    127     0.9299     0.9300     0.0000      5.536     14.000  22200.000      6.000    41.2537    75.4528   -33.8365    -0.0975     1.9545     1.0050    -3.9990    20.6267    41.2566     1.5470    14.6405    14.6385     0.0020   295.0000     4.2218     4.172
    128     0.9349     0.9351     0.0000      5.570     19.000  22200.000      6.000    41.2537    75.3593   -34.0255    -0.0975     1.9545     1.0050    -3.9990    20.6267    41.2566     1.5554    14.6405    14.6385     0.0020   295.0000     4.2218     4.172
    129     0.9399     0.9401    -0.0000      5.614     12.000  22200.000      6.000    41.2537    75.2657   -34.2145    -0.0975     1.9545     1.0050    -3.9990    20.6267    41.2566     1.5638    14.6405    14.6385     0.0020   295.0000     4.2292     4.153
    130     0.9449     0.9451     0.0000      5.549     16.000  22200.000      6.000    41.2537    75.1713   -34.4005    -0.0975     1.9545     1.0050    -3.9990    20.6267    41.2566     1.5720    14.6405    14.6385     0.0020   295.0000     4.2237     4.172
    131     0.9499     0.9501    -0.0000      5.567     15.000  22200.000      6.000    41.2537    75.0778   -34.5895    -0.0975     1.9545     1.0050    -3.9990    20.6267    41.2566     1.5804    14.6405    14.6385     0.0020   295.0000     4.2188     4.171
    132     0.9549     0.9551     0.0000      5.544     11.000  22200.000      6.000    41.2537    74.9833   -34.7765    -0.0975     1.9545     1.0050    -3.9990    20.6267    41.2566     1.5887    14.6405    14.6385     0.0020   295.0000     4.2188     4.171
    133     0.9599     0.9601     0.0000      5.513     17.000  22200.000      6.000    41.2537    74.8888   -34.9635    -0.0975     1.9545     1.0050    -3.9990    20.6267    41.2566     1.5969    14.6405    14.6385     0.0020   295.0000     4.2257     4.276
    134     0.9649     0.9651    -0.0000      5.543     14.000  22200.000      6.000    41.2537    74.7972   -35.1534    -0.0975     1.9545     1.0050    -3.9990    20.6267    41.2566     1.6053    14.6405    14.6385     0.0020   295.0000     4.2232     4.181
    135     0.9699     0.9701     0.0000      5.597     18.000  22200.000      6.000    41.2537    74.7018   -35.3404    -0.0975     1.9545     1.0050    -3.9990    20.6267    41.2566     1.6136    14.6405    14.6385     0.0020   295.0000     4.2291     4.160
    136     0.9749     0.9751     0.0000      5.605     15.000  22200.000      6.000    41.2537    74.6063   -35.5284    -0.0975     1.9545     1.0050    -3.9990    20.6267    41.2566     1.6219    14.6405    14.6385     0.0020   295.0000     4.2291     4.160
    137     0.9800     0.9801     0.0000      5.607     47.000  22200.000      6.000    41.2537    74.5128   -35.7194    -0.0975     1.9545     1.0050    -3.9990    20.6267    41.2566     1.6303    14.6405    14.6385     0.0020   295.0000     4.2365     4.180
    138     0.9848     0.9850     0.0000      5.595    241.000  22200.000      6.000    41.2537    74.4193   -35.9034    -0.0975     1.9545     1.0050    -3.9990    20.6267    41.2566     1.6385    14.6405    14.6385     0.0020   295.0000     4.2258     4.172
    139     0.9899     0.9901     0.0000      5.561    690.000  22200.000      6.000    41.2537    74.3248   -36.0944    -0.0975     1.9545     1.0050    -3.9990    20.6267    41.2566     1.6469    14.6405    14.6385     0.0020   295.0000     4.2206     4.174
    140     0.9949     0.9951     0.0000      5.594   1461.000  22200.000      6.000    41.2537    74.2313   -36.2824    -0.0975     1.9545     1.0050    -3.9990    20.6267    41.2566     1.6552    14.6405    14.6385     0.0020   295.0000     4.2219     4.165
    141     0.9999     1.0001    -0.0000      5.580   1973.000  22200.000      6.000    41.2537    74.1368   -36.4723    -0.0975     1.9545     1.0050    -3.9990    20.6267    41.2566     1.6636    14.6405    14.6385     0.0020   295.0000     4.2219     4.165
    142     1.0049     1.0051     0.0000      5.563   1624.000  22200.000      6.000    41.2537    74.0423   -36.6603    -0.0975     1.9545     1.0050    -3.9990    20.6267    41.2566     1.6718    14.6405    14.6385     0.0020   295.0000     4.2342     4.181
    143     1.0099     1.0101     0.0000      5.546    914.000  22200.000      6.000    41.2537    73.9478   -36.8493    -0.0975     1.9545     1.0050    -3.9990    20.6267    41.2566     1.6802    14.6405    14.6385     0.0020   295.0000     4.2218     4.172
    144     1.0149     1.0151    -0.0000      5.547    237.000  22200.000      6.000    41.2537    73.8543   -37.0373    -0.0975     1.9545     1.0050    -3.9990    20.6267    41.2566     1.6884    14.6405    14.6385     0.0020   295.0000     4.2247     4.173
    145     1.0200     1.0201    -0.0000      5.532     53.000  22200.000      6.000    41.2537    73.7598   -37.2292    -0.0975     1.9545     1.0050    -3.9990    20.6267    41.2566     1.6969    14.6405    14.6385     0.0020   295.0000     4.2247     4.173
    146     1.0249     1.0251     0.0000      5.612     16.000  22200.000      6.000    41.2537    73.6644   -37.4152    -0.0975     1.9545     1.0050    -3.9990    20.6267    41.2566     1.7050    14.6405    14.6385     0.0020   295.0000     4.2207     4.167
    147     1.0299     1.0301     0.0000      5.572     26.000  22200.000      6.000    41.2537    73.5689   -37.6062    -0.0975     1.9545     1.0050    -3.9990    20.6267    41.2566     1.7134    14.6405    14.6385     0.0020   295.0000     4.2253     4.170
    148     1.0349     1.0351     0.0000      5.489     23.000  22200.000      6.000    41.2537    73.4744   -37.7952    -0.0975     1.9545     1.0050    -3.9990    20.6267    41.2566     1.7217    14.6405    14.6385     0.0020   295.0000     4.2199     4.173
    149     1.0399     1.0401     0.0000      5.566     28.000  22200.000      6.000    41.2537    73.3799   -37.9841    -0.0975     1.9545     1.0050    -3.9990    20.6267    41.2566     1.7300    14.6405    14.6385     0.0020   295.0000     4.2199     4.173
    150     1.0449     1.0451     0.0000      5.522     25.000  22200.000      6.000    41.2537    73.2844   -38.1761    -0.0975     1.9545     1.0050    -3.9990    20.6267    41.2566     1.7384    14.6405    14.6385     0.0020   295.0000     4.2166     4.168
    151     1.0499     1.0501     0.0000      5.625     22.000  22200.000      6.000    41.2537    73.1900   -38.3631    -0.0975     1.9545     1.0050    -3.9990    20.6267    41.2566     1.7466    14.6405    14.6385     0.0020   295.0000     4.2274     4.177
    152     1.0550     1.0552    -0.0000      5.552     20.000  22200.000      6.000    41.2537    73.0945   -38.5580    -0.0975     1.9545     1.0050    -3.9990    20.6267    41.2566     1.7552    14.6405    14.6385     0.0020   295.0000     4.2256     4.172
    153     1.0600     1.0602    -0.0000      5.521     19.000  22200.000      6.000    41.2537    73.0010   -38.7469    -0.0975     1.9545     1.0050    -3.9990    20.6267    41.2566     1.7634    14.6405    14.6385     0.0020   295.0000     4.2256     4.172
    154     1.0649     1.0651     0.0000      5.551     25.000  22200.000      6.000    41.2537    72.9055   -38.9330    -0.0975     1.9545     1.0050    -3.9990    20.6267    41.2566     1.7716    14.6405    14.6385     0.0020   295.0000     4.2346     4.161
    155     1.0699     1.0701    -0.0000      5.490     28.000  22200.000      6.000    41.2537    72.8110   -39.1249    -0.0975     1.9545     1.0050    -3.9990    20.6267    41.2566     1.7800    14.6405    14.6385     0.0020   295.0000     4.2255     4.169
    156     1.0749     1.0751    -0.0000      5.593     24.000  22200.000      6.000    41.2537    72.7156   -39.3158    -0.0975     1.9545     1.0050    -3.9990    20.6267    41.2566     1.7883    14.6405    14.6385     0.0020   295.0000     4.2173     4.171
    157     1.0799     1.0801     0.0000      5.510     27.000  22200.000      6.000    41.2537    72.6201   -39.5048    -0.0975     1.9545     1.0050    -3.9990    20.6267    41.2566     1.7966    14.6405    14.6385     0.0020   295.0000     4.2173     4.171
    158     1.0849     1.0851     0.0000      5.519     22.000  22200.000      6.000    41.2537    72.5246   -39.6967    -0.0975     1.9545     1.0050    -3.9990    20.6267    41.2566     1.8050    14.6405    14.6385     0.0020   295.0000     4.2339     4.171
    159     1.0899     1.0901     0.0000      5.516     27.000  22200.000      6.000    41.2537    72.4301   -39.8857    -0.0975     1.9545     1.0050    -3.9990    20.6267    41.2566     1.8132    14.6405    14.6385     0.0020   295.0000     4.2247     4.172
    160     1.0949     1.0951     0.0000      5.572     30.000  22200.000      6.000    41.2537    72.3346   -40.0767    -0.0975     1.9545     1.0050    -3.9990    20.6267    41.2566     1.8215    14.6405    14.6385     0.0020   295.0000     4.2218     4.172
    161     1.1000     1.1002    -0.0000      5.561     40.000  22200.000      6.000    41.2537    72.2392   -40.2706    -0.0975     1.9545     1.0050    -3.9990    20.6267    41.2566     1.8300    14.6405    14.6385     0.0020   295.0000     4.2218     4.172
    162     1.1049     1.1051     0.0000      5.527     27.000  22200.000      6.000    41.2537    72.1437   -40.4585    -0.0975     1.9545     1.0050    -3.9990    20.6267    41.2566     1.8382    14.6405    14.6385     0.0020   295.0000     4.2249     4.166
    163     1.1099     1.1101     0.0000      5.542     35.000  22200.000      6.000    41.2537    72.0472   -40.6515    -0.0975     1.9545     1.0050    -3.9990    20.6267    41.2566     1.8465    14.6405    14.6385     0.0020   295.0000     4.2212     4.171
    164     1.1149     1.1151     0.0000      5.557     20.000  22200.000      6.000    41.2537    71.9508   -40.8404    -0.0975     1.9545     1.0050    -3.9990    20.6267    41.2566     1.8548    14.6405    14.6385     0.0020   295.0000     4.2231     4.172
    165     1.1199     1.1201     0.0000      5.514     25.000  22200.000      6.000    41.2537    71.8563   -41.0324    -0.0975     1.9545     1.0050    -3.9990    20.6267    41.2566     1.8631    14.6405    14.6385     0.0020   295.0000     4.2231     4.172
    166     1.1249     1.1251     0.0000      5.566     38.000  22200.000      6.000    41.2537    71.7598   -41.2253    -0.0975     1.9545     1.0050    -3.9990    20.6267    41.2566     1.8715    14.6405    14.6385     0.0020   295.0000     4.2313     4.184
    167     1.1299     1.1301     0.0000      5.515     27.000  22200.000      6.000    41.2537    71.6644   -41.4152    -0.0975     1.9545     1.0050    -3.9990    20.6267    41.2566     1.8797    14.6405    14.6385     0.0020   295.0000     4.2225     4.173
    168     1.1349     1.1351     0.0000      5.608     32.000  22200.000      6.000    41.2537    71.5679   -41.6082    -0.0975     1.9545     1.0050    -3.9990    20.6267    41.2566     1.8881    14.6405    14.6385     0.0020   295.0000     4.2239     4.173
    169     1.1398     1.1401     0.0000      5.620     30.000  22200.000      6.000    41.2537    71.4724   -41.7981    -0.0975     1.9545     1.0050    -3.9990    20.6267    41.2566     1.8963    14.6405    14.6385     0.0020   295.0000     4.2239     4.173
    170     1.1449     1.1451     0.0000      5.580     25.000  22200.000      6.000    41.2537    71.3770   -41.9920    -0.0975     1.9545     1.0050    -3.9990    20.6267    41.2566     1.9047    14.6405    14.6385     0.0020   295.0000     4.2269     4.165
    171     1.1499     1.1501    -0.0000      5.555     23.000  22200.000      6.000    41.2537    71.2815   -42.1849    -0.0975     1.9545     1.0050    -3.9990    20.6267    41.2566     1.9131    14.6405    14.6385     0.0020   295.0000     4.2241     4.173
    172     1.1549     1.1551    -0.0000      5.536     28.000  22200.000      6.000    41.2537    71.1870   -42.3759    -0.0975     1.9545     1.0050    -3.9990    20.6267    41.2566     1.9214    14.6405    14.6385     0.0020   295.0000     4.2255     4.171
    173     1.1599     1.1601     0.0000      5.565     21.000  22200.000      6.000    41.2537    71.0886   -42.5678    -0.0975     1.9545     1.0050    -3.9990    20.6267    41.2566     1.9297    14.6405    14.6385     0.0020   295.0000     4.2255     4.171
    174     1.1649     1.1651    -0.0000      5.587     26.000  22200.000      6.000    41.2537    70.9931   -42.7617    -0.0975     1.9545     1.0050    -3.9990    20.6267    41.2566     1.9380    14.6405    14.6385     0.0020   295.0000     4.2197     4.173
    175     1.1698     1.1700     0.0000      5.555     21.000  22200.000      6.000    41.2537    70.8976   -42.9507    -0.0975     1.9545     1.0050    -3.9990    20.6267    41.2566     1.9462    14.6405    14.6385     0.0020   295.0000     4.2240     4.181
    176     1.1749     1.1751    -0.0000      5.504     26.000  22200.000      6.000    41.2537    70.8012   -43.1475    -0.0975     1.9545     1.0050    -3.9990    20.6267    41.2566     1.9547    14.6405    14.6385     0.0020   295.0000     4.2251     4.186
    177     1.1799     1.1801    -0.0000      5.538     26.000  22200.000      6.000    41.2537    70.7047   -43.3395    -0.0975     1.9545     1.0050    -3.9990    20.6267    41.2566     1.9630    14.6405    14.6385     0.0020   295.0000     4.2234     4.184
    178     1.1848     1.1851     0.0001      5.607     29.000  22200.000      6.000    41.2537    70.6053   -43.5304    -0.0975     1.9545     1.0050    -3.9990    20.6267    41.2566     1.9712    14.6405    14.6385     0.0020   295.0000     4.2234     4.184
    179     1.1899     1.1902     0.0000      5.520     28.000  22200.000      6.000    41.2537    70.5089   -43.7272    -0.0975     1.9545     1.0050    -3.9990    20.6267    41.2566     1.9797    14.6405    14.6385     0.0020   295.0000     4.2229     4.183
    180     1.1949     1.1951     0.0000      5.608     31.000  22200.000      6.000    41.2537    70.4144   -43.9172    -0.0975     1.9545     1.0050    -3.9990    20.6267    41.2566     1.9878    14.6405    14.6385     0.0020   295.0000     4.2203     4.175
    181     1.1999     1.2001     0.0000      5.543     31.000  22200.000      6.000    41.2537    70.3169   -44.1111    -0.0975     1.9545     1.0050    -3.9990    20.6267    41.2566     1.9962    14.6405    14.6385     0.0020   295.0000     4.2189     4.157
    182     1.2048     1.2051     0.0000      5.567     31.000  22200.000      6.000    41.2537    70.2205   -44.3040    -0.0975     1.9545     1.0050    -3.9990    20.6267    41.2566     2.0045    14.6405    14.6385     0.0020   295.0000     4.2189     4.157
    183     1.2098     1.2100     0.0000      5.573     33.000  22200.000      6.000    41.2537    70.1240   -44.4969    -0.0975     1.9545     1.0050    -3.9990    20.6267    41.2566     2.0128    14.6405    14.6385     0.0020   295.0000     4.2216     4.172
    184     1.2149     1.2152    -0.0000      5.613     20.000  22200.000      6.000    41.2537    70.0266   -44.6948    -0.0975     1.9545     1.0050    -3.9990    20.6267    41.2566     2.0213    14.6405    14.6385     0.0020   295.0000     4.2259     4.170
    185     1.2199     1.2201     0.0000      5.507     21.000  22200.000      6.000    41.2537    69.9301   -44.8867    -0.0975     1.9545     1.0050    -3.9990    20.6267    41.2566     2.0295    14.6405    14.6385     0.0020   295.0000     4.2221     4.164
    186     1.2249     1.2251     0.0000      5.566     23.000  22200.000      6.000    41.2537    69.8327   -45.0806    -0.0975     1.9545     1.0050    -3.9990    20.6267    41.2566     2.0378    14.6405    14.6385     0.0020   295.0000     4.2221     4.164
    187     1.2298     1.2301     0.0000      5.524     26.000  22200.000      6.000    41.2537    69.7362   -45.2735    -0.0975     1.9545     1.0050    -3.9990    20.6267    41.2566     2.0461    14.6405    14.6385     0.0020   295.0000     4.2319     4.183
    188     1.2349     1.2351     0.0000      5.632     25.000  22200.000      6.000    41.2537    69.6378   -45.4694    -0.0975     1.9545     1.0050    -3.9990    20.6267    41.2566     2.0544    14.6405    14.6385     0.0020   295.0000     4.2190     4.173
    189     1.2399     1.2401    -0.0000      5.507     26.000  22200.000      6.000    41.2537    69.5413   -45.6652    -0.0975     1.9545     1.0050    -3.9990    20.6267    41.2566     2.0628    14.6405    14.6385     0.0020   295.0000     4.2234     4.175
    190     1.2448     1.2451     0.0000      5.626     33.000  22200.000      6.000    41.2537    69.4439   -45.8572    -0.0975     1.9545     1.0050    -3.9990    20.6267    41.2566     2.0710    14.6405    14.6385     0.0020   295.0000     4.2234     4.175
    191     1.2499     1.2502    -0.0000      5.554     34.000  22200.000      6.000    41.2537    69.3465   -46.0550    -0.0975     1.9545     1.0050    -3.9990    20.6267    41.2566     2.0795    14.6405    14.6385     0.0020   295.0000     4.2212     4.169
    192     1.2550     1.2552    -0.0000      5.660     24.000  22200.000      6.000    41.2537    69.2500   -46.2509    -0.0975     1.9545     1.0050    -3.9990    20.6267    41.2566     2.0878    14.6405    14.6385     0.0020   295.0000     4.2235     4.170
    193     1.2599     1.2601    -0.0000      5.526     19.000  22200.000      6.000    41.2537    69.1526   -46.4428    -0.0975     1.9545     1.0050    -3.9990    20.6267    41.2566     2.0960    14.6405    14.6385     0.0020   295.0000     4.2237     4.156
    194     1.2649     1.2651    -0.0000      5.569     22.000  22200.000      6.000    41.2537    69.0551   -46.6387    -0.0975     1.9545     1.0050    -3.9990    20.6267    41.2566     2.1044    14.6405    14.6385     0.0020   295.0000     4.2237     4.156
    195     1.2699     1.2701     0.0000      5.646     28.000  22200.000      6.000    41.2537    68.9567   -46.8335    -0.0975     1.9545     1.0050    -3.9990    20.6267    41.2566     2.1127    14.6405    14.6385     0.0020   295.0000     4.2271     4.217
    196     1.2749     1.2751     0.0000      5.589     24.000  22200.000      6.000    41.2537    68.8593   -47.0284    -0.0975     1.9545     1.0050    -3.9990    20.6267    41.2566     2.1210    14.6405    14.6385     0.0020   295.0000     4.2167     4.169
    197     1.2799     1.2802    -0.0000      5.513     26.000  22200.000      6.000    41.2537    68.7618   -47.2263    -0.0975     1.9545     1.0050    -3.9990    20.6267    41.2566     2.1294    14.6405    14.6385     0.0020   295.0000     4.2241     4.168
    198     1.2849     1.2851     0.0000      5.569     15.000  22200.000      6.000    41.2537    68.6634   -47.4202    -0.0975     1.9545     1.0050    -3.9990    20.6267    41.2566     2.1376    14.6405    14.6385     0.0020   295.0000     4.2241     4.168
    199     1.2899     1.2901     0.0000      5.512     24.000  22200.000      6.000    41.2537    68.5650   -47.6160    -0.0975     1.9545     1.0050    -3.9990    20.6267    41.2566     2.1459    14.6405    14.6385     0.0020   295.0000     4.2273     4.192
    200     1.2949     1.2951     0.0000      5.579     25.000  22200.000      6.000    41.2537    68.4665   -47.8119    -0.0975     1.9545     1.0050    -3.9990    20.6267    41.2566     2.1542    14.6405    14.6385     0.0020   295.0000     4.2259     4.169
    201     1.2999     1.3001     0.0000      5.567     19.000  22200.000      6.000    41.2537    68.3681   -48.0087    -0.0975     1.9545     1.0050    -3.9990    20.6267    41.2566     2.1626    14.6405    14.6385     0.0020   295.0000     4.2245     4.174
    202     1.3049     1.3052    -0.0000      5.580     26.000  22200.000      6.000    41.2537    68.2717   -48.2066    -0.0975     1.9545     1.0050    -3.9990    20.6267    41.2566     2.1710    14.6405    14.6385     0.0020   295.0000     4.2245     4.174
    203     1.3099     1.3101    -0.0000      5.449      8.000  22200.000      6.000    41.2537    68.1742   -48.4015    -0.0975     1.9545     1.0050    -3.9990    20.6267    41.2566     2.1792    14.6405    14.6385     0.0020   295.0000     4.2270     4.178
    204     1.3149     1.3151     0.0000      5.529     20.000  22200.000      6.000    41.2537    68.0748   -48.5983    -0.0975     1.9545     1.0050    -3.9990    20.6267    41.2566     2.1875    14.6405    14.6385     0.0020   295.0000     4.2206     4.173
    205     1.3199     1.3201     0.0000      5.520     20.000  22200.000      6.000    41.2537    67.9764   -48.7952    -0.0975     1.9545     1.0050    -3.9990    20.6267    41.2566     2.1959    14.6405    14.6385     0.0020   295.0000     4.2269     4.214
    206     1.3249     1.3251     0.0000      5.520     11.000  22200.000      6.000    41.2537    67.8780   -48.9910    -0.0975     1.9545     1.0050    -3.9990    20.6267    41.2566     2.2041    14.6405    14.6385     0.0020   295.0000     4.2269     4.214
    207     1.3299     1.3302    -0.0000      5.498     17.000  22200.000      6.000    41.2537    67.7795   -49.1908    -0.0975     1.9545     1.0050    -3.9990    20.6267    41.2566     2.2126    14.6405    14.6385     0.0020   295.0000     4.2268     4.178
    208     1.3349     1.3351    -0.0000      5.533     21.000  22200.000      6.000    41.2537    67.6821   -49.3867    -0.0975     1.9545     1.0050    -3.9990    20.6267    41.2566     2.2208    14.6405    14.6385     0.0020   295.0000     4.2186     4.169
    209     1.3399     1.3401     0.0000      5.577     11.000  22200.000      6.000    41.2537    67.5817   -49.5835    -0.0975     1.9545     1.0050    -3.9990    20.6267    41.2566     2.2291    14.6405    14.6385     0.0020   295.0000     4.2263     4.174
    210     1.3449     1.3451     0.0000      5.483     18.000  22200.000      6.000    41.2537    67.4823   -49.7824    -0.0975     1.9545     1.0050    -3.9990    20.6267    41.2566     2.2375    14.6405    14.6385     0.0020   295.0000     4.2263     4.174
    211     1.3498     1.3501     0.0000      5.631     20.000  22200.000      6.000    41.2537    67.3839   -49.9772    -0.0975     1.9545     1.0050    -3.9990    20.6267    41.2566     2.2457    14.6405    14.6385     0.0020   295.0000     4.2319     4.187
    212     1.3549     1.3551    -0.0000      5.537     17.000  22200.000      6.000    41.2537    67.2854   -50.1780    -0.0975     1.9545     1.0050    -3.9990    20.6267    41.2566     2.2541    14.6405    14.6385     0.0020   295.0000     4.2216     4.169
    213     1.3598     1.3601     0.0000      5.506      9.000  22200.000      6.000    41.2537    67.1870   -50.3739    -0.0975     1.9545     1.0050    -3.9990    20.6267    41.2566     2.2623    14.6405    14.6385     0.0020   295.0000     4.2255     4.172
    214     1.3649     1.3651     0.0000      5.508     11.000  22200.000      6.000    41.2537    67.0866   -50.5737    -0.0975     1.9545     1.0050    -3.9990    20.6267    41.2566     2.2707    14.6405    14.6385     0.0020   295.0000     4.2255     4.172
    215     1.3699     1.3701     0.0000      5.516     13.000  22200.000      6.000    41.2537    66.9882   -50.7715    -0.0975     1.9545     1.0050    -3.9990    20.6267    41.2566     2.2790    14.6405    14.6385     0.0020   295.0000     4.2287     4.170
    216     1.3749     1.3751     0.0000      5.541     17.000  22200.000      6.000    41.2537    66.8888   -50.9694    -0.0975     1.9545     1.0050    -3.9990    20.6267    41.2566     2.2873    14.6405    14.6385     0.0020   295.0000     4.2250     4.172
    217     1.3799     1.3802    -0.0000      5.592     11.000  22200.000      6.000    41.2537    66.7894   -51.1702    -0.0975     1.9545     1.0050    -3.9990    20.6267    41.2566     2.2957    14.6405    14.6385     0.0020   295.0000     4.2184     4.171
    218     1.3849     1.3852    -0.0000      5.526      7.000  22200.000      6.000    41.2537    66.6909   -51.3690    -0.0975     1.9545     1.0050    -3.9990    20.6267    41.2566     2.3040    14.6405    14.6385     0.0020   295.0000     4.2184     4.171
    219     1.3899     1.3901     0.0000      5.597     16.000  22200.000      6.000    41.2537    66.5896   -51.5668    -0.0975     1.9545     1.0050    -3.9990    20.6267    41.2566     2.3123    14.6405    14.6385     0.0020   295.0000     4.2221     4.203
    220     1.3949     1.3951     0.0000      5.557     14.000  22200.000      6.000    41.2537    66.4911   -51.7656    -0.0975     1.9545     1.0050    -3.9990    20.6267    41.2566     2.3206    14.6405    14.6385     0.0020   295.0000     4.2249     4.182
    221     1.3998     1.4001     0.0000      5.568      9.000  22200.000      6.000    41.2537    66.3917   -51.9645    -0.0975     1.9545     1.0050    -3.9990    20.6267    41.2566     2.3289    14.6405    14.6385     0.0020   295.0000     4.2232     4.185
    222     1.4049     1.4051     0.0000      5.526     14.000  22200.000      6.000    41.2537    66.2913   -52.1652    -0.0975     1.9545     1.0050    -3.9990    20.6267    41.2566     2.3373    14.6405    14.6385     0.0020   295.0000     4.2232     4.185
    223     1.4099     1.4101    -0.0000      5.604      8.000  22200.000      6.000    41.2537    66.1919   -52.3650    -0.0975     1.9545     1.0050    -3.9990    20.6267    41.2566     2.3456    14.6405    14.6385     0.0020   295.0000     4.2290     4.185
    224     1.4149     1.4151    -0.0000      5.555      9.000  22200.000      6.000    41.2537    66.0925   -52.5639    -0.0975     1.9545     1.0050    -3.9990    20.6267    41.2566     2.3539    14.6405    14.6385     0.0020   295.0000     4.2205     4.186
    225     1.4199     1.4202    -0.0000      5.550      5.000  22200.000      6.000    41.2537    65.9921   -52.7656    -0.0975     1.9545     1.0050    -3.9990    20.6267    41.2566     2.3623    14.6405    14.6385     0.0020   295.0000     4.2240     4.183
    226     1.4248     1.4251     0.0000      5.624     18.000  22200.000      6.000    41.2537    65.8917   -52.9635    -0.0975     1.9545     1.0050    -3.9990    20.6267    41.2566     2.3705    14.6405    14.6385     0.0020   295.0000     4.2240     4.183
    227     1.4299     1.4302    -0.0001      5.509      9.000  22200.000      6.000    41.2537    65.7933   -53.1662    -0.0975     1.9545     1.0050    -3.9990    20.6267    41.2566     2.3789    14.6405    14.6385     0.0020   295.0000     4.2289     4.186
    228     1.4348     1.4351     0.0000      5.533      8.000  22200.000      6.000    41.2537    65.6919   -53.3641    -0.0975     1.9545     1.0050    -3.9990    20.6267    41.2566     2.3871    14.6405    14.6385     0.0020   295.0000     4.2222     4.187
    229     1.4400     1.4402    -0.0000      5.509      9.000  22200.000      6.000    41.2537    65.5896   -53.5708    -0.0975     1.9545     1.0050    -3.9990    20.6267    41.2566     2.3957    14.6405    14.6385     0.0020   295.0000     4.2198     4.186
    230     1.4449     1.4451    -0.0000      5.549      6.000  22200.000      6.000    41.2537    65.4911   -53.7676    -0.0975     1.9545     1.0050    -3.9990    20.6267    41.2566     2.4038    14.6405    14.6385     0.0020   295.0000     4.2198     4.186
    231     1.4498     1.4501     0.0000      5.586      7.000  22200.000      6.000    41.2537    65.3907   -53.9674    -0.0975     1.9545     1.0050    -3.9990    20.6267    41.2566     2.4121    14.6405    14.6385     0.0020   295.0000     4.2239     4.187
    232     1.4549     1.4552    -0.0000      5.531     10.000  22200.000      6.000    41.2537    65.2894   -54.1711    -0.0975     1.9545     1.0050    -3.9990    20.6267    41.2566     2.4205    14.6405    14.6385     0.0020   295.0000     4.2193     4.172
    233     1.4599     1.4601     0.0000      5.508      6.000  22200.000      6.000    41.2537    65.1880   -54.3709    -0.0975     1.9545     1.0050    -3.9990    20.6267    41.2566     2.4287    14.6405    14.6385     0.0020   295.0000     4.2295     4.181
    234     1.4649     1.4652    -0.0000      5.572      8.000  22200.000      6.000    41.2537    65.0886   -54.5737    -0.0975     1.9545     1.0050    -3.9990    20.6267    41.2566     2.4371    14.6405    14.6385     0.0020   295.0000     4.2295     4.181
    235     1.4699     1.4701    -0.0000      5.624      8.000  22200.000      6.000    41.2537    64.9882   -54.7745    -0.0975     1.9545     1.0050    -3.9990    20.6267    41.2566     2.4454    14.6405    14.6385     0.0020   295.0000     4.2262     4.178
    236     1.4748     1.4751     0.0000      5.538      7.000  22200.000      6.000    41.2537    64.8858   -54.9753    -0.0975     1.9545     1.0050    -3.9990    20.6267    41.2566     2.4536    14.6405    14.6385     0.0020   295.0000     4.2226     4.184
    237     1.4799     1.4802    -0.0000      5.532      8.000  22200.000      6.000    41.2537    64.7854   -55.1810    -0.0975     1.9545     1.0050    -3.9990    20.6267    41.2566     2.4621    14.6405    14.6385     0.0020   295.0000     4.2159     4.185
    238     1.4848     1.4851    -0.0000      5.582      8.000  22200.000      6.000    41.2537    64.6850   -55.3808    -0.0975     1.9545     1.0050    -3.9990    20.6267    41.2566     2.4703    14.6405    14.6385     0.0020   295.0000     4.2159     4.185
    239     1.4899     1.4901     0.0000      5.555      6.000  22200.000      6.000    41.2537    64.5817   -55.5835    -0.0975     1.9545     1.0050    -3.9990    20.6267    41.2566     2.4786    14.6405    14.6385     0.0020   295.0000     4.2256     4.194
    240     1.4949     1.4951     0.0000      5.586      8.000  22200.000      6.000    41.2537    64.4793   -55.7863    -0.0975     1.9545     1.0050    -3.9990    20.6267    41.2566     2.4870    14.6405    14.6385     0.0020   295.0000     4.2153     4.162
    241     1.4999     1.5001    -0.0000      5.567      7.000  22200.000      6.000    41.2537    64.3799   -55.9900    -0.0975     1.9545     1.0050    -3.9990    20.6267    41.2566     2.4953    14.6405    14.6385     0.0020   295.0000     4.2198     4.144
    242     1.5049     1.5051     0.0000      5.500      9.000  22200.000      6.000    41.2537    64.2776   -56.1928    -0.0975     1.9545     1.0050    -3.9990    20.6267    41.2566     2.5036    14.6405    14.6385     0.0020   295.0000     4.2198     4.144
    243     1.5098     1.5101    -0.0000      5.583      6.000  22200.000      6.000    41.2537    64.1772   -56.3956    -0.0975     1.9545     1.0050    -3.9990    20.6267    41.2566     2.5119    14.6405    14.6385     0.0020   295.0000     4.2215     4.166
    244     1.5149     1.5151     0.0000      5.562      3.000  22200.000      6.000    41.2537    64.0738   -56.5993    -0.0975     1.9545     1.0050    -3.9990    20.6267    41.2566     2.5202    14.6405    14.6385     0.0020   295.0000     4.2209     4.152
    245     1.5199     1.5202     0.0000      5.589      3.000  22200.000      6.000    41.2537    63.9724   -56.8040    -0.0975     1.9545     1.0050    -3.9990    20.6267    41.2566     2.5286    14.6405    14.6385     0.0020   295.0000     4.2279     4.174
    246     1.5248     1.5251    -0.0000      5.559      6.000  22200.000      6.000    41.2537    63.8720   -57.0058    -0.0975     1.9545     1.0050    -3.9990    20.6267    41.2566     2.5368    14.6405    14.6385     0.0020   295.0000     4.2179     4.169
    247     1.5299     1.5302    -0.0000      5.548      2.000  22200.000      6.000    41.2537    63.7697   -57.2125    -0.0975     1.9545     1.0050    -3.9990    20.6267    41.2566     2.5452    14.6405    14.6385     0.0020   295.0000     4.2179     4.169
    248     1.5348     1.5351    -0.0000      5.561      7.000  22200.000      6.000    41.2537    63.6673   -57.4152    -0.0975     1.9545     1.0050    -3.9990    20.6267    41.2566     2.5535    14.6405    14.6385     0.0020   295.0000     4.2222     4.169
    249     1.5399     1.5402     0.0000      5.521      5.000  22200.000      6.000    41.2537    63.5640   -57.6209    -0.0975     1.9545     1.0050    -3.9990    20.6267    41.2566     2.5619    14.6405    14.6385     0.0020   295.0000     4.2294     4.171
    250     1.5449     1.5452    -0.0001      5.571      5.000  22200.000      6.000    41.2537    63.4636   -57.8257    -0.0975     1.9545     1.0050    -3.9990    20.6267    41.2566     2.5702    14.6405    14.6385     0.0020   295.0000     4.2095     4.163
    251     1.5498     1.5501    -0.0000      5.586      5.000  22200.000      6.000    41.2537    63.3612   -58.0284    -0.0975     1.9545     1.0050    -3.9990    20.6267    41.2566     2.5784    14.6405    14.6385     0.0020   295.0000     4.2095     4.163
    252     1.5549     1.5552    -0.0000      5.564      3.000  22200.000      6.000    41.2537    63.2579   -58.2361    -0.0975     1.9545     1.0050    -3.9990    20.6267    41.2566     2.5868    14.6405    14.6385     0.0020   295.0000     4.2196     4.166
    253     1.5598     1.5601     0.0000      5.558      4.000  22200.000      6.000    41.2537    63.1535   -58.4398    -0.0975     1.9545     1.0050    -3.9990    20.6267    41.2566     2.5951    14.6405    14.6385     0.0020   295.0000     4.2244     4.171
    254     1.5649     1.5652     0.0000      5.591      7.000  22200.000      6.000    41.2537    63.0512   -58.6465    -0.0975     1.9545     1.0050    -3.9990    20.6267    41.2566     2.6034    14.6405    14.6385     0.0020   295.0000     4.2201     4.161
    255     1.5699     1.5702    -0.0000      5.546     10.000  22200.000      6.000    41.2537    62.9488   -58.8522    -0.0975     1.9545     1.0050    -3.9990    20.6267    41.2566     2.6118    14.6405    14.6385     0.0020   295.0000     4.2201     4.161
    256     1.5748     1.5751    -0.0000      5.544      7.000  22200.000      6.000    41.2537    62.8465   -59.0570    -0.0975     1.9545     1.0050    -3.9990    20.6267    41.2566     2.6200    14.6405    14.6385     0.0020   295.0000     4.2264     4.171
    257     1.5799     1.5801    -0.0000      5.620      6.000  22200.000      6.000    41.2537    62.7431   -59.2637    -0.0975     1.9545     1.0050    -3.9990    20.6267    41.2566     2.6284    14.6405    14.6385     0.0020   295.0000     4.2232     4.171
    258     1.5848     1.5851     0.0000      5.525      4.000  22200.000      6.000    41.2537    62.6398   -59.4694    -0.0975     1.9545     1.0050    -3.9990    20.6267    41.2566     2.6367    14.6405    14.6385     0.0020   295.0000     4.2122     4.187
    259     1.5899     1.5902     0.0000      5.531      4.000  22200.000      6.000    41.2537    62.5344   -59.6780    -0.0975     1.9545     1.0050    -3.9990    20.6267    41.2566     2.6451    14.6405    14.6385     0.0020   295.0000     4.2122     4.187
    260     1.5948     1.5951     0.0000      5.552      5.000  22200.000      6.000    41.2537    62.4331   -59.8828    -0.0975     1.9545     1.0050    -3.9990    20.6267    41.2566     2.6533    14.6405    14.6385     0.0020   295.0000     4.2227     4.174
    261     1.5998     1.6001     0.0000      5.620      3.000  22200.000      6.000    41.2537    62.3297   -60.0875    -0.0975     1.9545     1.0050    -3.9990    20.6267    41.2566     2.6615    14.6405    14.6385     0.0020   295.0000     4.2254     4.173
    262     1.6049     1.6052     0.0000      5.586     11.000  22200.000      6.000    41.2537    62.2254   -60.2991    -0.0975     1.9545     1.0050    -3.9990    20.6267    41.2566     2.6700    14.6405    14.6385     0.0020   295.0000     4.2180     4.170
    263     1.6099     1.6102     0.0000      5.516     20.000  22200.000      6.000    41.2537    62.1220   -60.5058    -0.0975     1.9545     1.0050    -3.9990    20.6267    41.2566     2.6783    14.6405    14.6385     0.0020   295.0000     4.2180     4.170
    264     1.6149     1.6152    -0.0000      5.559     49.000  22200.000      6.000    41.2537    62.0187   -60.7145    -0.0975     1.9545     1.0050    -3.9990    20.6267    41.2566     2.6867    14.6405    14.6385     0.0020   295.0000     4.2222     4.183
    265     1.6198     1.6201     0.0000      5.564     62.000  22200.000      6.000    41.2537    61.9134   -60.9192    -0.0975     1.9545     1.0050    -3.9990    20.6267    41.2566     2.6948    14.6405    14.6385     0.0020   295.0000     4.2182     4.173
    266     1.6250     1.6253    -0.0001      5.625     43.000  22200.000      6.000    41.2537    61.8110   -61.1337    -0.0975     1.9545     1.0050    -3.9990    20.6267    41.2566     2.7034    14.6405    14.6385     0.0020   295.0000     4.2227     4.179
    267     1.6299     1.6301    -0.0000      5.526     29.000  22200.000      6.000    41.2537    61.7067   -61.3375    -0.0975     1.9545     1.0050    -3.9990    20.6267    41.2566     2.7116    14.6405    14.6385     0.0020   295.0000     4.2227     4.179
    268     1.6348     1.6351     0.0000      5.595     13.000  22200.000      6.000    41.2537    61.6014   -61.5452    -0.0975     1.9545     1.0050    -3.9990    20.6267    41.2566     2.7198    14.6405    14.6385     0.0020   295.0000     4.2275     4.185
    269     1.6399     1.6401    -0.0000      5.523      9.000  22200.000      6.000    41.2537    61.4980   -61.7548    -0.0975     1.9545     1.0050    -3.9990    20.6267    41.2566     2.7282    14.6405    14.6385     0.0020   295.0000     4.2183     4.172
    270     1.6448     1.6451     0.0000      5.583      0.000  22200.000      6.000    41.2537    61.3927   -61.9635    -0.0975     1.9545     1.0050    -3.9990    20.6267    41.2566     2.7365    14.6405    14.6385     0.0020   295.0000     4.2231     4.172
    271     1.6499     1.6502    -0.0000      5.561      6.000  22200.000      6.000    41.2537    61.2894   -62.1741    -0.0975     1.9545     1.0050    -3.9990    20.6267    41.2566     2.7449    14.6405    14.6385     0.0020   295.0000     4.2231     4.172
    272     1.6548     1.6551     0.0000      5.535      7.000  22200.000      6.000    41.2537    61.1841   -62.3818    -0.0975     1.9545     1.0050    -3.9990    20.6267    41.2566     2.7531    14.6405    14.6385     0.0020   295.0000     4.2313     4.197
    273     1.6598     1.6601     0.0000      5.579      4.000  22200.000      6.000    41.2537    61.0787   -62.5914    -0.0975     1.9545     1.0050    -3.9990    20.6267    41.2566     2.7614    14.6405    14.6385     0.0020   295.0000     4.2218     4.186
    274     1.6649     1.6652     0.0000      5.529      3.000  22200.000      6.000    41.2537    60.9734   -62.8030    -0.0975     1.9545     1.0050    -3.9990    20.6267    41.2566     2.7698    14.6405    14.6385     0.0020   295.0000     4.2203     4.182
    275     1.6698     1.6701     0.0000      5.593      3.000  22200.000      6.000    41.2537    60.8691   -63.0117    -0.0975     1.9545     1.0050    -3.9990    20.6267    41.2566     2.7781    14.6405    14.6385     0.0020   295.0000     4.2203     4.182
    276     1.6749     1.6752    -0.0000      5.525      5.000  22200.000      6.000    41.2537    60.7638   -63.2233    -0.0975     1.9545     1.0050    -3.9990    20.6267    41.2566     2.7864    14.6405    14.6385     0.0020   295.0000     4.2222     4.181
    277     1.6798     1.6801     0.0000      5.575      8.000  22200.000      6.000    41.2537    60.6585   -63.4330    -0.0975     1.9545     1.0050    -3.9990    20.6267    41.2566     2.7947    14.6405    14.6385     0.0020   295.0000     4.2205     4.186
    278     1.6849     1.6852     0.0000      5.592      5.000  22200.000      6.000    41.2537    60.5512   -63.6456    -0.0975     1.9545     1.0050    -3.9990    20.6267    41.2566     2.8031    14.6405    14.6385     0.0020   295.0000     4.2211     4.184
    279     1.6898     1.6901     0.0000      5.633      3.000  22200.000      6.000    41.2537    60.4478   -63.8542    -0.0975     1.9545     1.0050    -3.9990    20.6267    41.2566     2.8113    14.6405    14.6385     0.0020   295.0000     4.2211     4.184
    280     1.6948     1.6951     0.0000      5.559      5.000  22200.000      6.000    41.2537    60.3415   -64.0658    -0.0975     1.9545     1.0050    -3.9990    20.6267    41.2566     2.8196    14.6405    14.6385     0.0020   295.0000     4.2104     4.185
    281     1.6999     1.7002    -0.0000      5.608      4.000  22200.000      6.000    41.2537    60.2362   -64.2794    -0.0975     1.9545     1.0050    -3.9990    20.6267    41.2566     2.8280    14.6405    14.6385     0.0020   295.0000     4.2253     4.185
    282     1.7048     1.7051     0.0000      5.543      2.000  22200.000      6.000    41.2537    60.1299   -64.4900    -0.0975     1.9545     1.0050    -3.9990    20.6267    41.2566     2.8363    14.6405    14.6385     0.0020   295.0000     4.2152     4.166
    283     1.7099     1.7102    -0.0000      5.574      0.000  22200.000      6.000    41.2537    60.0246   -64.7036    -0.0975     1.9545     1.0050    -3.9990    20.6267    41.2566     2.8447    14.6405    14.6385     0.0020   295.0000     4.2215     4.181
    284     1.7148     1.7151     0.0000      5.521      2.000  22200.000      6.000    41.2537    59.9173   -64.9123    -0.0975     1.9545     1.0050    -3.9990    20.6267    41.2566     2.8529    14.6405    14.6385     0.0020   295.0000     4.2215     4.181
    285     1.7199     1.7202     0.0000      5.543      2.000  22200.000      6.000    41.2537    59.8110   -65.1278    -0.0975     1.9545     1.0050    -3.9990    20.6267    41.2566     2.8613    14.6405    14.6385     0.0020   295.0000     4.2211     4.177
    286     1.7248     1.7252     0.0000      5.621      5.000  22200.000      6.000    41.2537    59.7047   -65.3404    -0.0975     1.9545     1.0050    -3.9990    20.6267    41.2566     2.8696    14.6405    14.6385     0.0020   295.0000     4.2223     4.172
    287     1.7298     1.7301     0.0000      5.555      2.000  22200.000      6.000    41.2537    59.5984   -65.5530    -0.0975     1.9545     1.0050    -3.9990    20.6267    41.2566     2.8779    14.6405    14.6385     0.0020   295.0000     4.2195     4.184
    288     1.7349     1.7352     0.0000      5.550      2.000  22200.000      6.000    41.2537    59.4902   -65.7676    -0.0975     1.9545     1.0050    -3.9990    20.6267    41.2566     2.8863    14.6405    14.6385     0.0020   295.0000     4.2195     4.184
    289     1.7398     1.7401     0.0000      5.595      2.000  22200.000      6.000    41.2537    59.3848   -65.9792    -0.0975     1.9545     1.0050    -3.9990    20.6267    41.2566     2.8945    14.6405    14.6385     0.0020   295.0000     4.2244     4.176
    290     1.7449     1.7452    -0.0000      5.509      0.000  22200.000      6.000    41.2537    59.2785   -66.1948    -0.0975     1.9545     1.0050    -3.9990    20.6267    41.2566     2.9029    14.6405    14.6385     0.0020   295.0000     4.2253     4.170
    291     1.7498     1.7501    -0.0000      5.568      5.000  22200.000      6.000    41.2537    59.1722   -66.4074    -0.0975     1.9545     1.0050    -3.9990    20.6267    41.2566     2.9111    14.6405    14.6385     0.0020   295.0000     4.2261     4.150
    292     1.7549     1.7552    -0.0001      5.545      6.000  22200.000      6.000    41.2537    59.0650   -66.6239    -0.0975     1.9545     1.0050    -3.9990    20.6267    41.2566     2.9195    14.6405    14.6385     0.0020   295.0000     4.2261     4.150
    293     1.7598     1.7601     0.0000      5.460      3.000  22200.000      6.000    41.2537    58.9567   -66.8365    -0.0975     1.9545     1.0050    -3.9990    20.6267    41.2566     2.9278    14.6405    14.6385     0.0020   295.0000     4.2219     4.155
    294     1.7648     1.7652    -0.0000      5.524      5.000  22200.000      6.000    41.2537    58.8494   -67.0520    -0.0975     1.9545     1.0050    -3.9990    20.6267    41.2566     2.9361    14.6405    14.6385     0.0020   295.0000     4.2242     4.172
    295     1.7699     1.7702    -0.0000      5.487      2.000  22200.000      6.000    41.2537    58.7421   -67.2686    -0.0975     1.9545     1.0050    -3.9990    20.6267    41.2566     2.9445    14.6405    14.6385     0.0020   295.0000     4.2189     4.178
    296     1.7748     1.7751     0.0000      5.514      2.000  22200.000      6.000    41.2537    58.6329   -67.4822    -0.0975     1.9545     1.0050    -3.9990    20.6267    41.2566     2.9527    14.6405    14.6385     0.0020   295.0000     4.2189     4.178
    297     1.7799     1.7802     0.0000      5.525      3.000  22200.000      6.000    41.2537    58.5246   -67.6997    -0.0975     1.9545     1.0050    -3.9990    20.6267    41.2566     2.9611    14.6405    14.6385     0.0020   295.0000     4.2233     4.167
    298     1.7848     1.7851     0.0000      5.504      1.000  22200.000      6.000    41.2537    58.4183   -67.9133    -0.0975     1.9545     1.0050    -3.9990    20.6267    41.2566     2.9693    14.6405    14.6385     0.0020   295.0000     4.2231     4.171
    299     1.7899     1.7902     0.0000      5.576      3.000  22200.000      6.000    41.2537    58.3091   -68.1318    -0.0975     1.9545     1.0050    -3.9990    20.6267    41.2566     2.9777    14.6405    14.6385     0.0020   295.0000     4.2233     4.168
    300     1.7948     1.7952    -0.0000      5.626      3.000  22200.000      6.000    41.2537    58.2018   -68.3473    -0.0975     1.9545     1.0050    -3.9990    20.6267    41.2566     2.9860    14.6405    14.6385     0.0020   295.0000     4.2233     4.168
    301     1.7999     1.8003    -0.0001      5.554      3.000  22200.000      6.000    41.2537    58.0925   -68.5688    -0.0975     1.9545     1.0050    -3.9990    20.6267    41.2566     2.9945    14.6405    14.6385     0.0020   295.0000     4.2190     4.174
    302     1.8049     1.8052    -0.0000      5.584      4.000  22200.000      6.000    41.2537    57.9843   -68.7833    -0.0975     1.9545     1.0050    -3.9990    20.6267    41.2566     3.0027    14.6405    14.6385     0.0020   295.0000     4.2202     4.172
    303     1.8098     1.8101     0.0000      5.583      3.000  22200.000      6.000    41.2537    57.8760   -68.9969    -0.0975     1.9545     1.0050    -3.9990    20.6267    41.2566     3.0109    14.6405    14.6385     0.0020   295.0000     4.2251     4.173
    304     1.8149     1.8152    -0.0000      5.576      1.000  22200.000      6.000    41.2537    57.7667   -69.2184    -0.0975     1.9545     1.0050    -3.9990    20.6267    41.2566     3.0194    14.6405    14.6385     0.0020   295.0000     4.2251     4.173
    305     1.8198     1.8201     0.0000      5.532      3.000  22200.000      6.000    41.2537    57.6585   -69.4339    -0.0975     1.9545     1.0050    -3.9990    20.6267    41.2566     3.0276    14.6405    14.6385     0.0020   295.0000     4.2296     4.193
    306     1.8248     1.8252     0.0000      5.572      7.000  22200.000      6.000    41.2537    57.5482   -69.6534    -0.0975     1.9545     1.0050    -3.9990    20.6267    41.2566     3.0359    14.6405    14.6385     0.0020   295.0000     4.2189     4.171
    307     1.8298     1.8301     0.0000      5.549      6.000  22200.000      6.000    41.2537    57.4390   -69.8709    -0.0975     1.9545     1.0050    -3.9990    20.6267    41.2566     3.0442    14.6405    14.6385     0.0020   295.0000     4.2213     4.176
    308     1.8348     1.8351     0.0000      5.557      3.000  22200.000      6.000    41.2537    57.3297   -70.0885    -0.0975     1.9545     1.0050    -3.9990    20.6267    41.2566     3.0525    14.6405    14.6385     0.0020   295.0000     4.2180     4.159
    309     1.8399     1.8402    -0.0001      5.553      2.000  22200.000      6.000    41.2537    57.2215   -70.3119    -0.0975     1.9545     1.0050    -3.9990    20.6267    41.2566     3.0610    14.6405    14.6385     0.0020   295.0000     4.2180     4.159
    310     1.8448     1.8452     0.0000      5.553      4.000  22200.000      6.000    41.2537    57.1112   -70.5284    -0.0975     1.9545     1.0050    -3.9990    20.6267    41.2566     3.0692    14.6405    14.6385     0.0020   295.0000     4.2201     4.171
    311     1.8498     1.8502    -0.0000      5.599      4.000  22200.000      6.000    41.2537    57.0020   -70.7489    -0.0975     1.9545     1.0050    -3.9990    20.6267    41.2566     3.0775    14.6405    14.6385     0.0020   295.0000     4.2213     4.176
    312     1.8548     1.8552     0.0000      5.548      6.000  22200.000      6.000    41.2537    56.8907   -70.9684    -0.0975     1.9545     1.0050    -3.9990    20.6267    41.2566     3.0858    14.6405    14.6385     0.0020   295.0000     4.2244     4.171
    313     1.8598     1.8602    -0.0000      5.579     16.000  22200.000      6.000    41.2537    56.7815   -71.1898    -0.0975     1.9545     1.0050    -3.9990    20.6267    41.2566     3.0942    14.6405    14.6385     0.0020   295.0000     4.2244     4.171
    314     1.8648     1.8651     0.0000      5.474      9.000  22200.000      6.000    41.2537    56.6703   -71.4083    -0.0975     1.9545     1.0050    -3.9990    20.6267    41.2566     3.1024    14.6405    14.6385     0.0020   295.0000     4.2190     4.173
    315     1.8698     1.8702     0.0000      5.530     25.000  22200.000      6.000    41.2537    56.5600   -71.6308    -0.0975     1.9545     1.0050    -3.9990    20.6267    41.2566     3.1108    14.6405    14.6385     0.0020   295.0000     4.2220     4.174
    316     1.8748     1.8752     0.0000      5.542     25.000  22200.000      6.000    41.2537    56.4488   -71.8513    -0.0975     1.9545     1.0050    -3.9990    20.6267    41.2566     3.1191    14.6405    14.6385     0.0020   295.0000     4.2224     4.176
    317     1.8798     1.8802     0.0000      5.547     20.000  22200.000      6.000    41.2537    56.3386   -72.0737    -0.0975     1.9545     1.0050    -3.9990    20.6267    41.2566     3.1274    14.6405    14.6385     0.0020   295.0000     4.2224     4.176
    318     1.8848     1.8852    -0.0000      5.496     14.000  22200.000      6.000    41.2537    56.2283   -72.2952    -0.0975     1.9545     1.0050    -3.9990    20.6267    41.2566     3.1357    14.6405    14.6385     0.0020   295.0000     4.2219     4.180
    319     1.8898     1.8902    -0.0000      5.569      8.000  22200.000      6.000    41.2537    56.1171   -72.5176    -0.0975     1.9545     1.0050    -3.9990    20.6267    41.2566     3.1441    14.6405    14.6385     0.0020   295.0000     4.2260     4.169
    320     1.8948     1.8952    -0.0001      5.578      2.000  22200.000      6.000    41.2537    56.0069   -72.7410    -0.0975     1.9545     1.0050    -3.9990    20.6267    41.2566     3.1524    14.6405    14.6385     0.0020   295.0000     4.2198     4.171
    321     1.8998     1.9001     0.0000      5.577      7.000  22200.000      6.000    41.2537    55.8947   -72.9615    -0.0975     1.9545     1.0050    -3.9990    20.6267    41.2566     3.1606    14.6405    14.6385     0.0020   295.0000     4.2198     4.171
    322     1.9048     1.9052    -0.0001      5.505      4.000  22200.000      6.000    41.2537    55.7835   -73.1869    -0.0975     1.9545     1.0050    -3.9990    20.6267    41.2566     3.1690    14.6405    14.6385     0.0020   295.0000     4.2236     4.176
    323     1.9098     1.9102    -0.0000      5.539      3.000  22200.000      6.000    41.2537    55.6713   -73.4093    -0.0975     1.9545     1.0050    -3.9990    20.6267    41.2566     3.1773    14.6405    14.6385     0.0020   295.0000     4.2225     4.171
    324     1.9148     1.9152     0.0000      5.545      3.000  22200.000      6.000    41.2537    55.5581   -73.6337    -0.0975     1.9545     1.0050    -3.9990    20.6267    41.2566     3.1857    14.6405    14.6385     0.0020   295.0000     4.2244     4.171
    325     1.9198     1.9202     0.0000      5.576      1.000  22200.000      6.000    41.2537    55.4459   -73.8572    -0.0975     1.9545     1.0050    -3.9990    20.6267    41.2566     3.1940    14.6405    14.6385     0.0020   295.0000     4.2244     4.171
    326     1.9248     1.9252     0.0000      5.504      2.000  22200.000      6.000    41.2537    55.3337   -74.0816    -0.0975     1.9545     1.0050    -3.9990    20.6267    41.2566     3.2023    14.6405    14.6385     0.0020   295.0000     4.2254     4.175
    327     1.9298     1.9302    -0.0000      5.575      7.000  22200.000      6.000    41.2537    55.2224   -74.3070    -0.0975     1.9545     1.0050    -3.9990    20.6267    41.2566     3.2106    14.6405    14.6385     0.0020   295.0000     4.2219     4.169
    328     1.9348     1.9352    -0.0000      5.504      1.000  22200.000      6.000    41.2537    55.1102   -74.5314    -0.0975     1.9545     1.0050    -3.9990    20.6267    41.2566     3.2189    14.6405    14.6385     0.0020   295.0000     4.2191     4.172
    329     1.9399     1.9402    -0.0000      5.528      1.000  22200.000      6.000    41.2537    54.9970   -74.7587    -0.0975     1.9545     1.0050    -3.9990    20.6267    41.2566     3.2273    14.6405    14.6385     0.0020   295.0000     4.2191     4.172
    330     1.9448     1.9451     0.0000      5.565      2.000  22200.000      6.000    41.2537    54.8839   -74.9812    -0.0975     1.9545     1.0050    -3.9990    20.6267    41.2566     3.2355    14.6405    14.6385     0.0020   295.0000     4.2219     4.188
    331     1.9498     1.9502     0.0000      5.567      6.000  22200.000      6.000    41.2537    54.7707   -75.2095    -0.0975     1.9545     1.0050    -3.9990    20.6267    41.2566     3.2439    14.6405    14.6385     0.0020   295.0000     4.2233     4.174
    332     1.9548     1.9552    -0.0000      5.514      2.000  22200.000      6.000    41.2537    54.6585   -75.4359    -0.0975     1.9545     1.0050    -3.9990    20.6267    41.2566     3.2522    14.6405    14.6385     0.0020   295.0000     4.2236     4.171
    333     1.9598     1.9602    -0.0000      5.579      3.000  22200.000      6.000    41.2537    54.5443   -75.6633    -0.0975     1.9545     1.0050    -3.9990    20.6267    41.2566     3.2605    14.6405    14.6385     0.0020   295.0000     4.2236     4.171
    334     1.9648     1.9652     0.0000      5.530      2.000  22200.000      6.000    41.2537    54.4301   -75.8887    -0.0975     1.9545     1.0050    -3.9990    20.6267    41.2566     3.2688    14.6405    14.6385     0.0020   295.0000     4.2234     4.166
    335     1.9699     1.9702    -0.0001      5.561      2.000  22200.000      6.000    41.2537    54.3169   -76.1200    -0.0975     1.9545     1.0050    -3.9990    20.6267    41.2566     3.2772    14.6405    14.6385     0.0020   295.0000     4.2271     4.171
    336     1.9748     1.9752     0.0000      5.559     10.000  22200.000      6.000    41.2537    54.2028   -76.3454    -0.0975     1.9545     1.0050    -3.9990    20.6267    41.2566     3.2855    14.6405    14.6385     0.0020   295.0000     4.2178     4.169
    337     1.9798     1.9802     0.0000      5.524     65.000  22200.000      6.000    41.2537    54.0886   -76.5737    -0.0975     1.9545     1.0050    -3.9990    20.6267    41.2566     3.2938    14.6405    14.6385     0.0020   295.0000     4.2154     4.175
    338     1.9848     1.9852     0.0000      5.601    334.000  22200.000      6.000    41.2537    53.9744   -76.8020    -0.0975     1.9545     1.0050    -3.9990    20.6267    41.2566     3.3021    14.6405    14.6385     0.0020   295.0000     4.2154     4.175
    339     1.9898     1.9902    -0.0000      5.575    699.000  22200.000      6.000    41.2537    53.8612   -77.0304    -0.0975     1.9545     1.0050    -3.9990    20.6267    41.2566     3.3104    14.6405    14.6385     0.0020   295.0000     4.2216     4.171
    340     1.9948     1.9952    -0.0000      5.550    985.000  22200.000      6.000    41.2537    53.7461   -77.2607    -0.0975     1.9545     1.0050    -3.9990    20.6267    41.2566     3.3187    14.6405    14.6385     0.0020   295.0000     4.2226     4.173
    341     1.9998     2.0002     0.0000      5.575   1104.000  22200.000      6.000    41.2537    53.6299   -77.4891    -0.0975     1.9545     1.0050    -3.9990    20.6267    41.2566     3.3270    14.6405    14.6385     0.0020   295.0000     4.2196     4.172
    342     2.0048     2.0052     0.0001      5.585    904.000  22200.000      6.000    41.2537    53.5138   -77.7204    -0.0975     1.9545     1.0050    -3.9990    20.6267    41.2566     3.3354    14.6405    14.6385     0.0020   295.0000     4.2196     4.172
    343     2.0098     2.0102    -0.0000      5.537    665.000  22200.000      6.000    41.2537    53.4016   -77.9507    -0.0975     1.9545     1.0050    -3.9990    20.6267    41.2566     3.3437    14.6405    14.6385     0.0020   295.0000     4.2226     4.154
    344     2.0148     2.0152    -0.0001      5.578    337.000  22200.000      6.000    41.2537    53.2864   -78.1820    -0.0975     1.9545     1.0050    -3.9990    20.6267    41.2566     3.3520    14.6405    14.6385     0.0020   295.0000     4.2250     4.171
    345     2.0198     2.0202    -0.0000      5.543    112.000  22200.000      6.000    41.2537    53.1693   -78.4133    -0.0975     1.9545     1.0050    -3.9990    20.6267    41.2566     3.3603    14.6405    14.6385     0.0020   295.0000     4.2192     4.174
    346     2.0248     2.0252     0.0000      5.579     23.000  22200.000      6.000    41.2537    53.0531   -78.6446    -0.0975     1.9545     1.0050    -3.9990    20.6267    41.2566     3.3687    14.6405    14.6385     0.0020   295.0000     4.2192     4.174
    347     2.0298     2.0302    -0.0000      5.607      8.000  22200.000      6.000    41.2537    52.9390   -78.8759    -0.0975     1.9545     1.0050    -3.9990    20.6267    41.2566     3.3769    14.6405    14.6385     0.0020   295.0000     4.2212     4.167
    348     2.0348     2.0352    -0.0000      5.535      3.000  22200.000      6.000    41.2537    52.8228   -79.1072    -0.0975     1.9545     1.0050    -3.9990    20.6267    41.2566     3.3852    14.6405    14.6385     0.0020   295.0000     4.2251     4.173
    349     2.0399     2.0402    -0.0000      5.552      3.000  22200.000      6.000    41.2537    52.7047   -79.3434    -0.0975     1.9545     1.0050    -3.9990    20.6267    41.2566     3.3937    14.6405    14.6385     0.0020   295.0000     4.2182     4.172
    350     2.0448     2.0452     0.0000      5.635      1.000  22200.000      6.000    41.2537    52.5876   -79.5737    -0.0975     1.9545     1.0050    -3.9990    20.6267    41.2566     3.4019    14.6405    14.6385     0.0020   295.0000     4.2263     4.179
    351     2.0498     2.0502     0.0000      5.543      3.000  22200.000      6.000    41.2537    52.4715   -79.8080    -0.0975     1.9545     1.0050    -3.9990    20.6267    41.2566     3.4102    14.6405    14.6385     0.0020   295.0000     4.2263     4.179
    352     2.0548     2.0552     0.0000      5.543      1.000  22200.000      6.000    41.2537    52.3543   -80.0422    -0.0975     1.9545     1.0050    -3.9990    20.6267    41.2566     3.4186    14.6405    14.6385     0.0020   295.0000     4.2221     4.149
    353     2.0598     2.0602    -0.0000      5.565      2.000  22200.000      6.000    41.2537    52.2382   -80.2765    -0.0975     1.9545     1.0050    -3.9990    20.6267    41.2566     3.4269    14.6405    14.6385     0.0020   295.0000     4.2226     4.172
    354     2.0648     2.0652     0.0000      5.551      2.000  22200.000      6.000    41.2537    52.1201   -80.5097    -0.0975     1.9545     1.0050    -3.9990    20.6267    41.2566     3.4351    14.6405    14.6385     0.0020   295.0000     4.2229     4.171
    355     2.0699     2.0702    -0.0000      5.497      1.000  22200.000      6.000    41.2537    52.0020   -80.7479    -0.0975     1.9545     1.0050    -3.9990    20.6267    41.2566     3.4436    14.6405    14.6385     0.0020   295.0000     4.2229     4.171
# Sum of Counts = 17218
# Center of Mass = 1.306848+/-0.014618
# Full Width Half-Maximum = 1.026468+/-0.008668
# 10:19:17 AM  11/11/2003   scan completed.
