# scan = 211
# date = 11/10/2003
# time = 12:17:50 PM
# experiment = TbPtIn single crystal;  100 plane
# experiment_number = 41
# command = scan s1 58 50 -.15 preset mcu 2
# builtin_command = scan s1 58 50 -.15 preset mcu 2
# users = O.Garlea, C.Stassis, J.L.Zarestky
# local_contact = J.L.Zarestky
# scan_title = 222 order parameter DN T = 10.0000
# monochromator = PG002
# analyzer = Pg002
# sense = +-+
# collimation = 48-40-40-102
# samplename = TbPtIn
# sampletype = crystal
# samplemosaic = 30.000000
# latticeconstants = 7.554017,7.554017,3.847681,90.000000,90.000000,120.000000
# ubmatrix = -0.008230,-0.004834,0.259516,-0.134256,-0.130074,-0.012979,0.072618,-0.080146,0.005414
# mode = 0
# plane_normal = -0.022217,-0.027363,0.999379
# ubconf = C:\User\exp41\UBConf\UB08Nov2003_100555PM.ini
# preset_type = normal 
# preset_channel = mcu
# preset_value = 2.000000
# def_x = s1
# def_y = detector
# col_headers = 
#   Pt.         s1       time   detector    monitor        mcu         m2         s2        sgl        sgu        stl        stu         a1         a2          q          h          k          l         ei         ef          e       temp    coldtip    tsample
      1    57.9990      1.879      0.000   7400.000      2.000    41.2537   -77.4891     1.2730    -1.5670    -0.0010    -0.0010    20.6266    41.2556     3.3271     1.9954     1.9952    -0.1392    14.6405    14.6392     0.0013   295.0000     0.0000     0.000
      2    57.8504      1.838      0.000   7400.000      2.000    41.2537   -77.4891     1.2730    -1.5670    -0.0010    -0.0010    20.6266    41.2556     3.3271     1.9957     1.9956    -0.1339    14.6405    14.6392     0.0013   295.0000     0.0000     0.000
      3    57.6998      1.859      0.000   7400.000      2.000    41.2537   -77.4891     1.2730    -1.5670    -0.0010    -0.0010    20.6266    41.2556     3.3271     1.9961     1.9959    -0.1285    14.6405    14.6392     0.0013   295.0000     0.0000     0.000
      4    57.5512      1.856      2.000   7400.000      2.000    41.2537   -77.4891     1.2730    -1.5670    -0.0010    -0.0010    20.6266    41.2556     3.3271     1.9964     1.9962    -0.1233    14.6405    14.6392     0.0013   295.0000     0.0000     0.000
      5    57.4006      1.873      0.000   7400.000      2.000    41.2537   -77.4891     1.2730    -1.5670    -0.0010    -0.0010    20.6266    41.2556     3.3271     1.9967     1.9966    -0.1179    14.6405    14.6392     0.0013   295.0000     0.0000     0.000
      6    57.2520      1.831      0.000   7400.000      2.000    41.2537   -77.4891     1.2730    -1.5670    -0.0010    -0.0010    20.6266    41.2556     3.3271     1.9970     1.9968    -0.1126    14.6405    14.6392     0.0013   295.0000     0.0000     0.000
      7    57.1014      1.853      0.000   7400.000      2.000    41.2537   -77.4891     1.2730    -1.5670    -0.0010    -0.0010    20.6266    41.2556     3.3271     1.9973     1.9971    -0.1073    14.6405    14.6392     0.0013   295.0000     0.0000     0.000
      8    56.9508      1.824      0.000   7400.000      2.000    41.2537   -77.4891     1.2730    -1.5670    -0.0010    -0.0010    20.6266    41.2556     3.3271     1.9976     1.9974    -0.1019    14.6405    14.6392     0.0013   295.0000     0.0000     0.000
      9    56.7992      1.857      1.000   7400.000      2.000    41.2537   -77.4891     1.2730    -1.5670    -0.0010    -0.0010    20.6266    41.2556     3.3271     1.9978     1.9977    -0.0966    14.6405    14.6392     0.0013   295.0000     0.0000     0.000
     10    56.6496      1.831      1.000   7400.000      2.000    41.2537   -77.4891     1.2730    -1.5670    -0.0010    -0.0010    20.6266    41.2556     3.3271     1.9981     1.9979    -0.0912    14.6405    14.6392     0.0013   295.0000     0.0000     0.000
     11    56.4990      1.844      0.000   7400.000      2.000    41.2537   -77.4891     1.2730    -1.5670    -0.0010    -0.0010    20.6266    41.2556     3.3271     1.9983     1.9981    -0.0859    14.6405    14.6392     0.0013   295.0000     0.0000     0.000
     12    56.3514      1.830      0.000   7400.000      2.000    41.2537   -77.4891     1.2730    -1.5670    -0.0010    -0.0010    20.6266    41.2556     3.3271     1.9985     1.9983    -0.0807    14.6405    14.6392     0.0013   295.0000     0.0000     0.000
     13    56.2018      1.840      0.000   7400.000      2.000    41.2537   -77.4891     1.2730    -1.5670    -0.0010    -0.0010    20.6266    41.2556     3.3271     1.9987     1.9985    -0.0753    14.6405    14.6392     0.0013   295.0000     0.0000     0.000
     14    56.0522      1.875      0.000   7400.000      2.000    41.2537   -77.4891     1.2730    -1.5670    -0.0010    -0.0010    20.6266    41.2556     3.3271     1.9989     1.9987    -0.0700    14.6405    14.6392     0.0013   295.0000     0.0000     0.000
     15    55.9006      1.874      0.000   7400.000      2.000    41.2537   -77.4891     1.2730    -1.5670    -0.0010    -0.0010    20.6266    41.2556     3.3271     1.9991     1.9989    -0.0646    14.6405    14.6392     0.0013   295.0000     0.0000     0.000
     16    55.7500      1.839      0.000   7400.000      2.000    41.2537   -77.4891     1.2730    -1.5670    -0.0010    -0.0010    20.6266    41.2556     3.3271     1.9992     1.9991    -0.0593    14.6405    14.6392     0.0013   295.0000     0.0000     0.000
     17    55.5994      1.846      0.000   7400.000      2.000    41.2537   -77.4891     1.2730    -1.5670    -0.0010    -0.0010    20.6266    41.2556     3.3271     1.9994     1.9992    -0.0539    14.6405    14.6392     0.0013   295.0000     0.0000     0.000
     18    55.4488      1.874      0.000   7400.000      2.000    41.2537   -77.4891     1.2730    -1.5670    -0.0010    -0.0010    20.6266    41.2556     3.3271     1.9995     1.9993    -0.0486    14.6405    14.6392     0.0013   295.0000     0.0000     0.000
     19    55.3002      1.859      0.000   7400.000      2.000    41.2537   -77.4891     1.2730    -1.5670    -0.0010    -0.0010    20.6266    41.2556     3.3271     1.9996     1.9995    -0.0433    14.6405    14.6392     0.0013   295.0000     0.0000     0.000
     20    55.1516      1.825      1.000   7400.000      2.000    41.2537   -77.4891     1.2730    -1.5670    -0.0010    -0.0010    20.6266    41.2556     3.3271     1.9997     1.9996    -0.0380    14.6405    14.6392     0.0013   295.0000     0.0000     0.000
     21    55.0000      1.853      1.000   7400.000      2.000    41.2537   -77.4891     1.2730    -1.5670    -0.0010    -0.0010    20.6266    41.2556     3.3271     1.9998     1.9996    -0.0326    14.6405    14.6392     0.0013   295.0000     0.0000     0.000
     22    54.8514      1.900      0.000   7400.000      2.000    41.2537   -77.4891     1.2730    -1.5670    -0.0010    -0.0010    20.6266    41.2556     3.3271     1.9999     1.9997    -0.0273    14.6405    14.6392     0.0013   295.0000     0.0000     0.000
     23    54.7008      1.895      0.000   7400.000      2.000    41.2537   -77.4891     1.2730    -1.5670    -0.0010    -0.0010    20.6266    41.2556     3.3271     2.0000     1.9998    -0.0220    14.6405    14.6392     0.0013   295.0000     0.0000     0.000
     24    54.5502      1.858      0.000   7400.000      2.000    41.2537   -77.4891     1.2730    -1.5670    -0.0010    -0.0010    20.6266    41.2556     3.3271     2.0000     1.9998    -0.0166    14.6405    14.6392     0.0013   295.0000     0.0000     0.000
     25    54.4006      1.853      0.000   7400.000      2.000    41.2537   -77.4891     1.2730    -1.5670    -0.0010    -0.0010    20.6266    41.2556     3.3271     2.0000     1.9999    -0.0113    14.6405    14.6392     0.0013   295.0000     0.0000     0.000
     26    54.2510      1.826      0.000   7400.000      2.000    41.2537   -77.4891     1.2730    -1.5670    -0.0010    -0.0010    20.6266    41.2556     3.3271     2.0001     1.9999    -0.0060    14.6405    14.6392     0.0013   295.0000     0.0000     0.000
     27    54.1004      1.853      0.000   7400.000      2.000    41.2537   -77.4891     1.2730    -1.5670    -0.0010    -0.0010    20.6266    41.2556     3.3271     2.0001     1.9999    -0.0006    14.6405    14.6392     0.0013   295.0000     0.0000     0.000
     28    53.9508      1.859      0.000   7400.000      2.000    41.2537   -77.4891     1.2730    -1.5670    -0.0010    -0.0010    20.6266    41.2556     3.3271     2.0001     1.9999     0.0047    14.6405    14.6392     0.0013   295.0000     0.0000     0.000
     29    53.8002      1.857      0.000   7400.000      2.000    41.2537   -77.4891     1.2730    -1.5670    -0.0010    -0.0010    20.6266    41.2556     3.3271     2.0000     1.9999     0.0100    14.6405    14.6392     0.0013   295.0000     0.0000     0.000
     30    53.6506      1.849      0.000   7400.000      2.000    41.2537   -77.4891     1.2730    -1.5670    -0.0010    -0.0010    20.6266    41.2556     3.3271     2.0000     1.9998     0.0154    14.6405    14.6392     0.0013   295.0000     0.0000     0.000
     31    53.4990      1.831      0.000   7400.000      2.000    41.2537   -77.4891     1.2730    -1.5670    -0.0010    -0.0010    20.6266    41.2556     3.3271     2.0000     1.9998     0.0208    14.6405    14.6392     0.0013   295.0000     0.0000     0.000
     32    53.3514      1.893      0.000   7400.000      2.000    41.2537   -77.4891     1.2730    -1.5670    -0.0010    -0.0010    20.6266    41.2556     3.3271     1.9999     1.9997     0.0260    14.6405    14.6392     0.0013   295.0000     0.0000     0.000
     33    53.2008      1.878      0.000   7400.000      2.000    41.2537   -77.4891     1.2730    -1.5670    -0.0010    -0.0010    20.6266    41.2556     3.3271     1.9998     1.9997     0.0314    14.6405    14.6392     0.0013   295.0000     0.0000     0.000
     34    53.0512      1.862      0.000   7400.000      2.000    41.2537   -77.4891     1.2730    -1.5670    -0.0010    -0.0010    20.6266    41.2556     3.3271     1.9997     1.9996     0.0367    14.6405    14.6392     0.0013   295.0000     0.0000     0.000
     35    52.9016      1.863      0.000   7400.000      2.000    41.2537   -77.4891     1.2730    -1.5670    -0.0010    -0.0010    20.6266    41.2556     3.3271     1.9996     1.9995     0.0420    14.6405    14.6392     0.0013   295.0000     0.0000     0.000
     36    52.7510      1.881      0.000   7400.000      2.000    41.2537   -77.4891     1.2730    -1.5670    -0.0010    -0.0010    20.6266    41.2556     3.3271     1.9995     1.9994     0.0474    14.6405    14.6392     0.0013   295.0000     0.0000     0.000
     37    52.5994      1.848      1.000   7400.000      2.000    41.2537   -77.4891     1.2730    -1.5670    -0.0010    -0.0010    20.6266    41.2556     3.3271     1.9994     1.9992     0.0527    14.6405    14.6392     0.0013   295.0000     0.0000     0.000
     38    52.4498      1.850      0.000   7400.000      2.000    41.2537   -77.4891     1.2730    -1.5670    -0.0010    -0.0010    20.6266    41.2556     3.3271     1.9993     1.9991     0.0581    14.6405    14.6392     0.0013   295.0000     0.0000     0.000
     39    52.3002      1.811      0.000   7400.000      2.000    41.2537   -77.4891     1.2730    -1.5670    -0.0010    -0.0010    20.6266    41.2556     3.3271     1.9991     1.9989     0.0634    14.6405    14.6392     0.0013   295.0000     0.0000     0.000
     40    52.1506      1.877      0.000   7400.000      2.000    41.2537   -77.4891     1.2730    -1.5670    -0.0010    -0.0010    20.6266    41.2556     3.3271     1.9989     1.9988     0.0687    14.6405    14.6392     0.0013   295.0000     0.0000     0.000
     41    52.0000      1.898      0.000   7400.000      2.000    41.2537   -77.4891     1.2730    -1.5670    -0.0010    -0.0010    20.6266    41.2556     3.3271     1.9988     1.9986     0.0740    14.6405    14.6392     0.0013   295.0000     0.0000     0.000
     42    51.8494      1.864      1.000   7400.000      2.000    41.2537   -77.4891     1.2730    -1.5670    -0.0010    -0.0010    20.6266    41.2556     3.3271     1.9986     1.9984     0.0794    14.6405    14.6392     0.0013   295.0000     0.0000     0.000
     43    51.6998      1.864      0.000   7400.000      2.000    41.2537   -77.4891     1.2730    -1.5670    -0.0010    -0.0010    20.6266    41.2556     3.3271     1.9983     1.9982     0.0847    14.6405    14.6392     0.0013   295.0000     0.0000     0.000
     44    51.5512      1.854      0.000   7400.000      2.000    41.2537   -77.4891     1.2730    -1.5670    -0.0010    -0.0010    20.6266    41.2556     3.3271     1.9981     1.9980     0.0900    14.6405    14.6392     0.0013   295.0000     0.0000     0.000
     45    51.4006      1.875      2.000   7400.000      2.000    41.2537   -77.4891     1.2730    -1.5670    -0.0010    -0.0010    20.6266    41.2556     3.3271     1.9979     1.9977     0.0953    14.6405    14.6392     0.0013   295.0000     0.0000     0.000
     46    51.2520      1.869      0.000   7400.000      2.000    41.2537   -77.4891     1.2730    -1.5670    -0.0010    -0.0010    20.6266    41.2556     3.3271     1.9976     1.9975     0.1006    14.6405    14.6392     0.0013   295.0000     0.0000     0.000
     47    51.1004      1.855      0.000   7400.000      2.000    41.2537   -77.4891     1.2730    -1.5670    -0.0010    -0.0010    20.6266    41.2556     3.3271     1.9974     1.9972     0.1060    14.6405    14.6392     0.0013   295.0000     0.0000     0.000
     48    50.9498      1.862      0.000   7400.000      2.000    41.2537   -77.4891     1.2730    -1.5670    -0.0010    -0.0010    20.6266    41.2556     3.3271     1.9971     1.9969     0.1113    14.6405    14.6392     0.0013   295.0000     0.0000     0.000
     49    50.8002      1.842      0.000   7400.000      2.000    41.2537   -77.4891     1.2730    -1.5670    -0.0010    -0.0010    20.6266    41.2556     3.3271     1.9968     1.9966     0.1167    14.6405    14.6392     0.0013   295.0000     0.0000     0.000
     50    50.6496      1.889      0.000   7400.000      2.000    41.2537   -77.4891     1.2730    -1.5670    -0.0010    -0.0010    20.6266    41.2556     3.3271     1.9965     1.9963     0.1220    14.6405    14.6392     0.0013   295.0000     0.0000     0.000
     51    50.4980      1.869      1.000   7400.000      2.000    41.2537   -77.4891     1.2730    -1.5670    -0.0010    -0.0010    20.6266    41.2556     3.3271     1.9962     1.9960     0.1274    14.6405    14.6392     0.0013   295.0000     0.0000     0.000
     52    50.3504      1.813      0.000   7400.000      2.000    41.2537   -77.4891     1.2730    -1.5670    -0.0010    -0.0010    20.6266    41.2556     3.3271     1.9958     1.9957     0.1326    14.6405    14.6392     0.0013   295.0000     0.0000     0.000
     53    50.2008      1.866      0.000   7400.000      2.000    41.2537   -77.4891     1.2730    -1.5670    -0.0010    -0.0010    20.6266    41.2556     3.3271     1.9955     1.9953     0.1379    14.6405    14.6392     0.0013   295.0000     0.0000     0.000
     54    50.0512      1.838      0.000   7400.000      2.000    41.2537   -77.4891     1.2730    -1.5670    -0.0010    -0.0010    20.6266    41.2556     3.3271     1.9951     1.9950     0.1432    14.6405    14.6392     0.0013   295.0000     0.0000     0.000
# Sum of Counts = 11
# Center of Mass = 54.222800+/-23.133941
# Full Width Half-Maximum = 5.195194+/-17.202392
# 12:20:35 PM  11/10/2003   scan completed.
