# scan = 16
# date = 10/22/2003
# time = 9:28:25 PM
# experiment = Alignment and Intensity Checks
# experiment_number = 41
# command = scan s2 46.500000 48.460000 0.049000
# builtin_command = scan s2 46.500000 48.460000 0.049000
# users = MY
# local_contact = MY
# scan_title = Ni Powder (1,1,1)
# monochromator = PG002
# analyzer = Pg002
# sense = -+-
# collimation = 48-40-40-120
# samplename = Sample with lattice params=2*pi
# sampletype = crystal
# samplemosaic = 30.000000
# latticeconstants = 6.280000,6.280000,6.280000,90.000000,90.000000,90.000000
# ubmatrix = -0.112597,-0.112597,0.000000,0.000000,0.000000,-0.159236,0.112597,-0.112597,0.000000
# mode = 0
# plane_normal = 0.000000,0.000000,1.000000
# ubconf = 
# preset_type = normal 
# preset_channel = time
# preset_value = 1.000000
# def_x = s2
# def_y = detector
# col_headers = 
#   Pt.         s2       time   detector    monitor        mcu         m1         m2         s1        sgl        sgu        stl        stu         a1         a2          q          h          k          l         ei         ef          e       temp    coldtip    tsample
      1    46.5024      1.000  11807.000 105253.000      0.915    51.0520   -28.2535     0.0002    -0.0055     0.0000     0.0000    -0.0010    90.0000     0.0604  1773.1550   910.4935   910.3188 -1217.8723    30.5008 6534326.9677 -6534296.4669     0.0000     0.0000     0.000
      2    46.5463      1.000  13551.000 105374.000      0.916    51.0520   -28.2535     0.0002    -0.0055     0.0000     0.0000    -0.0010    90.0000     0.0604  1773.1571   911.1559   910.9810 -1216.8844    30.5008 6534326.9677 -6534296.4669     0.0000     0.0000     0.000
      3    46.5958      1.000  15532.000 105266.000      0.915    51.0520   -28.2535     0.0002    -0.0055     0.0000     0.0000    -0.0010    90.0000     0.0604  1773.1595   911.9005   911.7254 -1215.7722    30.5008 6534326.9677 -6534296.4669     0.0000     0.0000     0.000
      4    46.6479      1.000  17663.000 105830.000      0.920    51.0520   -28.2535     0.0002    -0.0055     0.0000     0.0000    -0.0010    90.0000     0.0604  1773.1621   912.6856   912.5104 -1214.5972    30.5008 6534326.9677 -6534296.4669     0.0000     0.0000     0.000
      5    46.6974      1.000  19711.000 105418.000      0.917    51.0520   -28.2535     0.0002    -0.0055     0.0000     0.0000    -0.0010    90.0000     0.0577  1857.7255   956.9251   956.7414 -1271.4503    30.5008 7171457.2984 -7171426.7976     0.0000     0.0000     0.000
      6    46.7441      1.000  22104.000 105444.000      0.917    51.0520   -28.2535     0.0002    -0.0055     0.0000     0.0000    -0.0010    90.0000     0.0604  1773.1668   914.1300   913.9545 -1212.4301    30.5008 6534326.9677 -6534296.4669     0.0000     0.0000     0.000
      7    46.7963      1.000  24589.000 105527.000      0.918    51.0520   -28.2535     0.0002    -0.0055     0.0000     0.0000    -0.0010    90.0000     0.0604  1773.1693   914.9130   914.7374 -1211.2523    30.5008 6534326.9677 -6534296.4669     0.0000     0.0000     0.000
      8    46.8430      1.000  26801.000 105354.000      0.916    51.0520   -28.2535     0.0002    -0.0055     0.0000     0.0000    -0.0010    90.0000     0.0577  1857.7326   959.2133   959.0292 -1268.0083    30.5008 7171457.2984 -7171426.7976     0.0000     0.0000     0.000
      9    46.8924      1.000  28701.000 105188.000      0.915    51.0520   -28.2535     0.0002    -0.0055     0.0000     0.0000    -0.0010    90.0000     0.0577  1857.7351   959.9891   959.8048 -1266.8374    30.5008 7171457.2984 -7171426.7976     0.0000     0.0000     0.000
     10    46.9418      1.000  31151.000 105393.000      0.916    51.0520   -28.2535     0.0002    -0.0055     0.0000     0.0000    -0.0010    90.0000     0.0604  1773.1764   917.0932   916.9171 -1207.9613    30.5008 6534326.9677 -6534296.4669     0.0000     0.0000     0.000
     11    46.9885      1.000  33313.000 105936.000      0.921    51.0520   -28.2535     0.0002    -0.0055     0.0000     0.0000    -0.0010    90.0000     0.0604  1773.1787   917.7912   917.6151 -1206.9041    30.5008 6534326.9677 -6534296.4669     0.0000     0.0000     0.000
     12    47.0407      1.000  35519.000 105527.000      0.918    51.0520   -28.2535     0.0002    -0.0055     0.0000     0.0000    -0.0010    90.0000     0.0577  1857.7423   962.3119   962.1272 -1263.3191    30.5008 7171457.2984 -7171426.7976     0.0000     0.0000     0.000
     13    47.0874      1.000  36814.000 105397.000      0.916    51.0520   -28.2535     0.0002    -0.0055     0.0000     0.0000    -0.0010    90.0000     0.0604  1773.1836   919.2675   919.0910 -1204.6626    30.5008 6534326.9677 -6534296.4669     0.0000     0.0000     0.000
     14    47.1368      1.000  38325.000 105835.000      0.920    51.0520   -28.2535     0.0002    -0.0055     0.0000     0.0000    -0.0010    90.0000     0.0604  1773.1860   920.0045   919.8279 -1203.5405    30.5008 6534326.9677 -6534296.4669     0.0000     0.0000     0.000
     15    47.1863      1.000  40057.000 105388.000      0.916    51.0520   -28.2535     0.0002    -0.0055     0.0000     0.0000    -0.0010    90.0000     0.0604  1773.1884   920.7409   920.5642 -1202.4175    30.5008 6534326.9677 -6534296.4669     0.0000     0.0000     0.000
     16    47.2357      1.000  41043.000 105124.000      0.914    51.0520   -28.2535     0.0002    -0.0055     0.0000     0.0000    -0.0010    90.0000     0.0577  1857.7519   965.3562   965.1709 -1258.6804    30.5008 7171457.2984 -7171426.7976     0.0000     0.0000     0.000
     17    47.2824      1.000  41636.000 105475.000      0.917    51.0520   -28.2535     0.0002    -0.0055     0.0000     0.0000    -0.0010    90.0000     0.0604  1773.1932   922.1708   921.9938 -1200.2313    30.5008 6534326.9677 -6534296.4669     0.0000     0.0000     0.000
     18    47.3318      1.000  42499.000 105438.000      0.917    51.0520   -28.2535     0.0002    -0.0055     0.0000     0.0000    -0.0010    90.0000     0.0604  1773.1956   922.9052   922.7280 -1199.1057    30.5008 6534326.9677 -6534296.4669     0.0000     0.0000     0.000
     19    47.3813      1.000  43093.000 105259.000      0.915    51.0520   -28.2535     0.0002    -0.0055     0.0000     0.0000    -0.0010    90.0000     0.0604  1773.1981   923.6389   923.4616 -1197.9792    30.5008 6534326.9677 -6534296.4669     0.0000     0.0000     0.000
     20    47.4335      1.000  43503.000 105544.000      0.918    51.0520   -28.2535     0.0002    -0.0055     0.0000     0.0000    -0.0010    90.0000     0.0604  1773.2006   924.4126   924.2351 -1196.7891    30.5008 6534326.9677 -6534296.4669     0.0000     0.0000     0.000
     21    47.4802      1.000  44093.000 105505.000      0.917    51.0520   -28.2535     0.0002    -0.0055     0.0000     0.0000    -0.0010    90.0000     0.0604  1773.2029   925.1042   924.9266 -1195.7234    30.5008 6534326.9677 -6534296.4669     0.0000     0.0000     0.000
     22    47.5323      1.000  43759.000 105102.000      0.914    51.0520   -28.2535     0.0002    -0.0055     0.0000     0.0000    -0.0010    90.0000     0.0604  1773.2055   925.8764   925.6987 -1194.5314    30.5008 6534326.9677 -6534296.4669     0.0000     0.0000     0.000
     23    47.5763      1.000  43546.000 105212.000      0.915    51.0520   -28.2535     0.0002    -0.0055     0.0000     0.0000    -0.0010    90.0000     0.0577  1857.7687   970.6462   970.4599 -1250.5438    30.5008 7171457.2984 -7171426.7976     0.0000     0.0000     0.000
     24    47.6285      1.000  43256.000 105516.000      0.918    51.0520   -28.2535     0.0002    -0.0055     0.0000     0.0000    -0.0010    90.0000     0.0577  1857.7713   971.4537   971.2673 -1249.2931    30.5008 7171457.2984 -7171426.7976     0.0000     0.0000     0.000
     25    47.6752      1.000  42363.000 105356.000      0.916    51.0520   -28.2535     0.0002    -0.0055     0.0000     0.0000    -0.0010    90.0000     0.0604  1773.2126   927.9860   927.8079 -1191.2641    30.5008 6534326.9677 -6534296.4669     0.0000     0.0000     0.000
     26    47.7246      1.000  41838.000 105115.000      0.914    51.0520   -28.2535     0.0002    -0.0055     0.0000     0.0000    -0.0010    90.0000     0.0577  1857.7761   972.9392   972.7524 -1246.9866    30.5008 7171457.2984 -7171426.7976     0.0000     0.0000     0.000
     27    47.7740      1.000  40979.000 105612.000      0.918    51.0520   -28.2535     0.0002    -0.0055     0.0000     0.0000    -0.0010    90.0000     0.0604  1773.2175   929.4431   929.2647 -1188.9977    30.5008 6534326.9677 -6534296.4669     0.0000     0.0000     0.000
     28    47.8235      1.000  39306.000 105828.000      0.920    51.0520   -28.2535     0.0002    -0.0055     0.0000     0.0000    -0.0010    90.0000     0.0604  1773.2200   930.1707   929.9921 -1187.8632    30.5008 6534326.9677 -6534296.4669     0.0000     0.0000     0.000
     29    47.8702      1.000  38340.000 105490.000      0.917    51.0520   -28.2535     0.0002    -0.0055     0.0000     0.0000    -0.0010    90.0000     0.0604  1773.2223   930.8571   930.6784 -1186.7909    30.5008 6534326.9677 -6534296.4669     0.0000     0.0000     0.000
     30    47.9224      1.000  36443.000 106020.000      0.922    51.0520   -28.2535     0.0002    -0.0055     0.0000     0.0000    -0.0010    90.0000     0.0604  1773.2249   931.6236   931.4448 -1185.5915    30.5008 6534326.9677 -6534296.4669     0.0000     0.0000     0.000
     31    47.9691      1.000  34742.000 105119.000      0.914    51.0520   -28.2535     0.0002    -0.0055     0.0000     0.0000    -0.0010    90.0000     0.0604  1773.2272   932.3088   932.1298 -1184.5176    30.5008 6534326.9677 -6534296.4669     0.0000     0.0000     0.000
     32    48.0185      1.000  32729.000 105600.000      0.918    51.0520   -28.2535     0.0002    -0.0055     0.0000     0.0000    -0.0010    90.0000     0.0604  1773.2297   933.0335   932.8544 -1183.3796    30.5008 6534326.9677 -6534296.4669     0.0000     0.0000     0.000
     33    48.0679      1.000  30625.000 105145.000      0.914    51.0520   -28.2535     0.0002    -0.0055     0.0000     0.0000    -0.0010    90.0000     0.0604  1773.2321   933.7576   933.5784 -1182.2407    30.5008 6534326.9677 -6534296.4669     0.0000     0.0000     0.000
     34    48.1174      1.000  28423.000 105285.000      0.916    51.0520   -28.2535     0.0002    -0.0055     0.0000     0.0000    -0.0010    90.0000     0.0604  1773.2346   934.4810   934.3016 -1181.1009    30.5008 6534326.9677 -6534296.4669     0.0000     0.0000     0.000
     35    48.1641      1.000  26690.000 105666.000      0.919    51.0520   -28.2535     0.0002    -0.0055     0.0000     0.0000    -0.0010    90.0000     0.0577  1857.7980   979.6949   979.5069 -1236.3975    30.5008 7171457.2984 -7171426.7976     0.0000     0.0000     0.000
     36    48.2162      1.000  24043.000 105691.000      0.919    51.0520   -28.2535     0.0002    -0.0055     0.0000     0.0000    -0.0010    90.0000     0.0604  1773.2395   935.9257   935.7460 -1178.8187    30.5008 6534326.9677 -6534296.4669     0.0000     0.0000     0.000
     37    48.2629      1.000  21367.000 105690.000      0.919    51.0520   -28.2535     0.0002    -0.0055     0.0000     0.0000    -0.0010    90.0000     0.0577  1857.8029   981.2070   981.0187 -1234.0049    30.5008 7171457.2984 -7171426.7976     0.0000     0.0000     0.000
     38    48.3124      1.000  19026.000 105389.000      0.916    51.0520   -28.2535     0.0002    -0.0055     0.0000     0.0000    -0.0010    90.0000     0.0577  1857.8054   981.9620   981.7735 -1232.8072    30.5008 7171457.2984 -7171426.7976     0.0000     0.0000     0.000
     39    48.3618      1.000  16660.000 105286.000      0.916    51.0520   -28.2535     0.0002    -0.0055     0.0000     0.0000    -0.0010    90.0000     0.0577  1857.8078   982.7162   982.5276 -1231.6086    30.5008 7171457.2984 -7171426.7976     0.0000     0.0000     0.000
     40    48.4113      1.000  14670.000 105518.000      0.918    51.0520   -28.2535     0.0002    -0.0055     0.0000     0.0000    -0.0010    90.0000     0.0604  1773.2493   938.7668   938.5866 -1174.3074    30.5008 6534326.9677 -6534296.4669     0.0000     0.0000     0.000
     41    48.4579      1.000  12515.000 104876.000      0.912    51.0520   -28.2535     0.0002    -0.0055     0.0000     0.0000    -0.0010    90.0000     0.0577  1857.8127   984.1807   983.9918 -1229.2754    30.5008 7171457.2984 -7171426.7976     0.0000     0.0000     0.000
# Sum of Counts = 1282825
# Center of Mass = 47.490832+/-0.059300
# Full Width Half-Maximum = 0.971777+/-0.016629
# 9:30:22 PM  10/22/2003   scan completed.
